Event Index,UTC Timestamp,UTC Date and Time,Local Timestamp,Local Timezone,Local Date and Time,Experiment ID,Experiment Version,Tree Node Key,Repeat Key,Schedule ID,Participant Public ID,Participant Private ID,Participant Starting Group,Participant Status,Participant Completion Code,Participant External Session ID,Participant Device Type,Participant Device,Participant OS,Participant Browser,Participant Monitor Size,Participant Viewport Size,Checkpoint,Room ID,Room Order,Task Name,Task Version,randomiser-5g79,rt,stimulus,key_press,test_part,correct_response,trial_type,trial_index,time_elapsed,internal_node_id,correct,success,browser_events,view_history,grid,target,p_or_r,block,first_response,trial_number,sequence,is_practice,correct_pos,correct_resp_button,resp_button,cumulative_RT,actual_triplet,triplet_type
1,1713943797996,24/04/2024 07:29:57,1713943797979,2,24/04/2024 09:29:57,143617,34,task-xrbt,,37232506,vhyg4,9856748,,complete,,,computer,Desktop or Laptop,Windows 10,Chrome 124.0.0.0,1920x1080,1920x1080,,,,Alternating Serial Reaction Time (ASRT) task,5,ASRT,,,,,,fullscreen,0,4580,0.0-0.0,,1,"[{""event"":""fullscreenenter"",""trial"":0,""time"":3601}]",,,,,,,,,,,,,,,
2,1713944828457,24/04/2024 07:47:08,1713944827891,2,24/04/2024 09:47:07,143617,34,task-xrbt,,37232506,vhyg4,9856748,,complete,,,computer,Desktop or Laptop,Windows 10,Chrome 124.0.0.0,1920x1080,1920x1080,,,,Alternating Serial Reaction Time (ASRT) task,5,ASRT,1029886.2000000002,,,,,instructions,1,1034495,0.0-1.0,,,[],"[{""page_index"":0,""viewing_time"":1016125},{""page_index"":1,""viewing_time"":13760.399999999441}]",,,,,,,,,,,,,,
3,1713944831174,24/04/2024 07:47:11,1713944831217,2,24/04/2024 09:47:11,143617,34,task-xrbt,,37232506,vhyg4,9856748,,complete,,,computer,Desktop or Laptop,Windows 10,Chrome 124.0.0.0,1920x1080,1920x1080,,,,Alternating Serial Reaction Time (ASRT) task,5,ASRT,3290.5,"<h2>Now a short practice will start.</h2>
        <p>Please place your fingers in this position on the keyboard:</p>
        <img src=/task/752107/5/asset/keyboard.bmp height='10%'>
        <p><strong>If you are ready, press <strong>any</strong> key to start a practice!</strong></p>",74,,,html-keyboard-response,2,1037820,0.0-2.0,,,[],,,,,,,,,,,,,,,
4,1713944832087,24/04/2024 07:47:12,1713944832138,2,24/04/2024 09:47:12,143617,34,task-xrbt,,37232506,vhyg4,9856748,,complete,,,computer,Desktop or Laptop,Windows 10,Chrome 124.0.0.0,1920x1080,1920x1080,,,,Alternating Serial Reaction Time (ASRT) task,5,ASRT,883.4000000003725,,76,,,serial-reaction-time,3,1038741,0.0-3.0-0.0,1,,[],,"[[1,1,1,1]]","[0,3]",R,1,1,1,2314,1,4,l,l,883.4000000003725,4,X
5,1713944833226,24/04/2024 07:47:13,1713944833267,2,24/04/2024 09:47:13,143617,34,task-xrbt,,37232506,vhyg4,9856748,,complete,,,computer,Desktop or Laptop,Windows 10,Chrome 124.0.0.0,1920x1080,1920x1080,,,,Alternating Serial Reaction Time (ASRT) task,5,ASRT,603.6000000005588,,76,,,serial-reaction-time,4,1039870,0.0-14.0-0.0,1,,[],,"[[1,1,1,1]]","[0,3]",R,1,1,2,2314,1,4,l,l,603.6000000005588,44,X
6,1713944834117,24/04/2024 07:47:14,1713944834170,2,24/04/2024 09:47:14,143617,34,task-xrbt,,37232506,vhyg4,9856748,,complete,,,computer,Desktop or Laptop,Windows 10,Chrome 124.0.0.0,1920x1080,1920x1080,,,,Alternating Serial Reaction Time (ASRT) task,5,ASRT,385.79999999981374,,76,,,serial-reaction-time,5,1040774,0.0-25.0-0.0,1,,[],,"[[1,1,1,1]]","[0,3]",R,1,1,3,2314,1,4,l,l,385.79999999981374,444,X
7,1713944835095,24/04/2024 07:47:15,1713944835149,2,24/04/2024 09:47:15,143617,34,task-xrbt,,37232506,vhyg4,9856748,,complete,,,computer,Desktop or Laptop,Windows 10,Chrome 124.0.0.0,1920x1080,1920x1080,,,,Alternating Serial Reaction Time (ASRT) task,5,ASRT,444,,70,,,serial-reaction-time,6,1041752,0.0-36.0-0.0,1,,[],,"[[1,1,1,1]]","[0,1]",R,1,1,4,2314,1,2,f,f,444,442,X
8,1713944835990,24/04/2024 07:47:15,1713944836038,2,24/04/2024 09:47:16,143617,34,task-xrbt,,37232506,vhyg4,9856748,,complete,,,computer,Desktop or Laptop,Windows 10,Chrome 124.0.0.0,1920x1080,1920x1080,,,,Alternating Serial Reaction Time (ASRT) task,5,ASRT,359.5,,70,,,serial-reaction-time,7,1042642,0.0-47.0-0.0,1,,[],,"[[1,1,1,1]]","[0,1]",R,1,1,5,2314,1,2,f,f,359.5,422,X
9,1713944836861,24/04/2024 07:47:16,1713944836902,2,24/04/2024 09:47:16,143617,34,task-xrbt,,37232506,vhyg4,9856748,,complete,,,computer,Desktop or Laptop,Windows 10,Chrome 124.0.0.0,1920x1080,1920x1080,,,,Alternating Serial Reaction Time (ASRT) task,5,ASRT,335,,70,,,serial-reaction-time,8,1043506,0.0-58.0-0.0,1,,[],,"[[1,1,1,1]]","[0,1]",R,1,1,6,2314,1,2,f,f,335,222,X
10,1713944837732,24/04/2024 07:47:17,1713944837793,2,24/04/2024 09:47:17,143617,34,task-xrbt,,37232506,vhyg4,9856748,,complete,,,computer,Desktop or Laptop,Windows 10,Chrome 124.0.0.0,1920x1080,1920x1080,,,,Alternating Serial Reaction Time (ASRT) task,5,ASRT,355.6000000005588,,76,,,serial-reaction-time,9,1044397,0.0-69.0-0.0,1,,[],,"[[1,1,1,1]]","[0,3]",R,1,1,7,2314,1,4,l,l,355.6000000005588,224,X
11,1713944838711,24/04/2024 07:47:18,1713944838769,2,24/04/2024 09:47:18,143617,34,task-xrbt,,37232506,vhyg4,9856748,,complete,,,computer,Desktop or Laptop,Windows 10,Chrome 124.0.0.0,1920x1080,1920x1080,,,,Alternating Serial Reaction Time (ASRT) task,5,ASRT,458.5,,74,,,serial-reaction-time,10,1045373,0.0-80.0-0.0,1,,[],,"[[1,1,1,1]]","[0,2]",R,1,1,8,2314,1,3,j,j,458.5,243,X
12,1713944839623,24/04/2024 07:47:19,1713944839676,2,24/04/2024 09:47:19,143617,34,task-xrbt,,37232506,vhyg4,9856748,,complete,,,computer,Desktop or Laptop,Windows 10,Chrome 124.0.0.0,1920x1080,1920x1080,,,,Alternating Serial Reaction Time (ASRT) task,5,ASRT,395.6000000005588,,70,,,serial-reaction-time,11,1046280,0.0-91.0-0.0,1,,[],,"[[1,1,1,1]]","[0,1]",R,1,1,9,2314,1,2,f,f,395.6000000005588,432,X
13,1713944840460,24/04/2024 07:47:20,1713944840517,2,24/04/2024 09:47:20,143617,34,task-xrbt,,37232506,vhyg4,9856748,,complete,,,computer,Desktop or Laptop,Windows 10,Chrome 124.0.0.0,1920x1080,1920x1080,,,,Alternating Serial Reaction Time (ASRT) task,5,ASRT,322.69999999925494,,76,,,serial-reaction-time,12,1047121,0.0-102.0-0.0,1,,[],,"[[1,1,1,1]]","[0,3]",R,1,1,10,2314,1,4,l,l,322.69999999925494,324,X
14,1713944841337,24/04/2024 07:47:21,1713944841396,2,24/04/2024 09:47:21,143617,34,task-xrbt,,37232506,vhyg4,9856748,,complete,,,computer,Desktop or Laptop,Windows 10,Chrome 124.0.0.0,1920x1080,1920x1080,,,,Alternating Serial Reaction Time (ASRT) task,5,ASRT,338.1000000005588,,76,,,serial-reaction-time,13,1048000,0.0-113.0-0.0,1,,[],,"[[1,1,1,1]]","[0,3]",R,1,1,11,2314,1,4,l,l,338.1000000005588,244,X
15,1713944842137,24/04/2024 07:47:22,1713944842185,2,24/04/2024 09:47:22,143617,34,task-xrbt,,37232506,vhyg4,9856748,,complete,,,computer,Desktop or Laptop,Windows 10,Chrome 124.0.0.0,1920x1080,1920x1080,,,,Alternating Serial Reaction Time (ASRT) task,5,ASRT,271.70000000018626,,76,,,serial-reaction-time,14,1048788,0.0-124.0-0.0,1,,[],,"[[1,1,1,1]]","[0,3]",R,1,1,12,2314,1,4,l,l,271.70000000018626,444,X
16,1713944843119,24/04/2024 07:47:23,1713944843086,2,24/04/2024 09:47:23,143617,34,task-xrbt,,37232506,vhyg4,9856748,,complete,,,computer,Desktop or Laptop,Windows 10,Chrome 124.0.0.0,1920x1080,1920x1080,,,,Alternating Serial Reaction Time (ASRT) task,5,ASRT,375.3999999994412,,70,,,serial-reaction-time,15,1049690,0.0-135.0-0.0,,,[],,"[[1,1,1,1]]","[0,0]",R,1,1,13,2314,1,1,s,f,375.3999999994412,441,X
17,1713944843200,24/04/2024 07:47:23,1713944843246,2,24/04/2024 09:47:23,143617,34,task-xrbt,,37232506,vhyg4,9856748,,complete,,,computer,Desktop or Laptop,Windows 10,Chrome 124.0.0.0,1920x1080,1920x1080,,,,Alternating Serial Reaction Time (ASRT) task,5,ASRT,130.29999999981374,,83,,,serial-reaction-time,16,1049850,0.0-136.0-0.0,1,,[],,"[[1,1,1,1]]","[0,0]",R,1,0,13,2314,1,1,s,s,505.69999999925494,441,X
18,1713944844026,24/04/2024 07:47:24,1713944844082,2,24/04/2024 09:47:24,143617,34,task-xrbt,,37232506,vhyg4,9856748,,complete,,,computer,Desktop or Laptop,Windows 10,Chrome 124.0.0.0,1920x1080,1920x1080,,,,Alternating Serial Reaction Time (ASRT) task,5,ASRT,313,,74,,,serial-reaction-time,17,1050686,0.0-146.0-0.0,1,,[],,"[[1,1,1,1]]","[0,2]",R,1,1,14,2314,1,3,j,j,313,413,X
19,1713944844968,24/04/2024 07:47:24,1713944845014,2,24/04/2024 09:47:25,143617,34,task-xrbt,,37232506,vhyg4,9856748,,complete,,,computer,Desktop or Laptop,Windows 10,Chrome 124.0.0.0,1920x1080,1920x1080,,,,Alternating Serial Reaction Time (ASRT) task,5,ASRT,399.20000000018626,,70,,,serial-reaction-time,18,1051618,0.0-157.0-0.0,1,,[],,"[[1,1,1,1]]","[0,1]",R,1,1,15,2314,1,2,f,f,399.20000000018626,132,X
20,1713944845958,24/04/2024 07:47:25,1713944846013,2,24/04/2024 09:47:26,143617,34,task-xrbt,,37232506,vhyg4,9856748,,complete,,,computer,Desktop or Laptop,Windows 10,Chrome 124.0.0.0,1920x1080,1920x1080,,,,Alternating Serial Reaction Time (ASRT) task,5,ASRT,469.8999999994412,,83,,,serial-reaction-time,19,1052616,0.0-168.0-0.0,1,,[],,"[[1,1,1,1]]","[0,0]",R,1,1,16,2314,1,1,s,s,469.8999999994412,321,X
21,1713944846833,24/04/2024 07:47:26,1713944846878,2,24/04/2024 09:47:26,143617,34,task-xrbt,,37232506,vhyg4,9856748,,complete,,,computer,Desktop or Laptop,Windows 10,Chrome 124.0.0.0,1920x1080,1920x1080,,,,Alternating Serial Reaction Time (ASRT) task,5,ASRT,338,,83,,,serial-reaction-time,20,1053482,0.0-179.0-0.0,1,,[],,"[[1,1,1,1]]","[0,0]",R,1,1,17,2314,1,1,s,s,338,211,X
22,1713944847853,24/04/2024 07:47:27,1713944847895,2,24/04/2024 09:47:27,143617,34,task-xrbt,,37232506,vhyg4,9856748,,complete,,,computer,Desktop or Laptop,Windows 10,Chrome 124.0.0.0,1920x1080,1920x1080,,,,Alternating Serial Reaction Time (ASRT) task,5,ASRT,486.90000000037253,,74,,,serial-reaction-time,21,1054499,0.0-190.0-0.0,1,,[],,"[[1,1,1,1]]","[0,2]",R,1,1,18,2314,1,3,j,j,486.90000000037253,113,X
23,1713944848737,24/04/2024 07:47:28,1713944848790,2,24/04/2024 09:47:28,143617,34,task-xrbt,,37232506,vhyg4,9856748,,complete,,,computer,Desktop or Laptop,Windows 10,Chrome 124.0.0.0,1920x1080,1920x1080,,,,Alternating Serial Reaction Time (ASRT) task,5,ASRT,364.59999999962747,,76,,,serial-reaction-time,22,1055393,0.0-201.0-0.0,1,,[],,"[[1,1,1,1]]","[0,3]",R,1,1,19,2314,1,4,l,l,364.59999999962747,134,X
24,1713944849718,24/04/2024 07:47:29,1713944849764,2,24/04/2024 09:47:29,143617,34,task-xrbt,,37232506,vhyg4,9856748,,complete,,,computer,Desktop or Laptop,Windows 10,Chrome 124.0.0.0,1920x1080,1920x1080,,,,Alternating Serial Reaction Time (ASRT) task,5,ASRT,446.29999999981374,,74,,,serial-reaction-time,23,1056368,0.0-212.0-0.0,1,,[],,"[[1,1,1,1]]","[0,2]",R,1,1,20,2314,1,3,j,j,446.29999999981374,343,X
25,1713944850570,24/04/2024 07:47:30,1713944850622,2,24/04/2024 09:47:30,143617,34,task-xrbt,,37232506,vhyg4,9856748,,complete,,,computer,Desktop or Laptop,Windows 10,Chrome 124.0.0.0,1920x1080,1920x1080,,,,Alternating Serial Reaction Time (ASRT) task,5,ASRT,330.09999999962747,,74,,,serial-reaction-time,24,1057225,0.0-223.0-0.0,1,,[],,"[[1,1,1,1]]","[0,2]",R,1,1,21,2314,1,3,j,j,330.09999999962747,433,X
26,1713944851416,24/04/2024 07:47:31,1713944851467,2,24/04/2024 09:47:31,143617,34,task-xrbt,,37232506,vhyg4,9856748,,complete,,,computer,Desktop or Laptop,Windows 10,Chrome 124.0.0.0,1920x1080,1920x1080,,,,Alternating Serial Reaction Time (ASRT) task,5,ASRT,309.20000000018626,,74,,,serial-reaction-time,25,1058070,0.0-234.0-0.0,1,,[],,"[[1,1,1,1]]","[0,2]",R,1,1,22,2314,1,3,j,j,309.20000000018626,333,X
27,1713944852255,24/04/2024 07:47:32,1713944852312,2,24/04/2024 09:47:32,143617,34,task-xrbt,,37232506,vhyg4,9856748,,complete,,,computer,Desktop or Laptop,Windows 10,Chrome 124.0.0.0,1920x1080,1920x1080,,,,Alternating Serial Reaction Time (ASRT) task,5,ASRT,305.40000000037253,,76,,,serial-reaction-time,26,1058916,0.0-245.0-0.0,1,,[],,"[[1,1,1,1]]","[0,3]",R,1,1,23,2314,1,4,l,l,305.40000000037253,334,X
28,1713944853094,24/04/2024 07:47:33,1713944853148,2,24/04/2024 09:47:33,143617,34,task-xrbt,,37232506,vhyg4,9856748,,complete,,,computer,Desktop or Laptop,Windows 10,Chrome 124.0.0.0,1920x1080,1920x1080,,,,Alternating Serial Reaction Time (ASRT) task,5,ASRT,323.6000000005588,,76,,,serial-reaction-time,27,1059752,0.0-256.0-0.0,1,,[],,"[[1,1,1,1]]","[0,3]",R,1,1,24,2314,1,4,l,l,323.6000000005588,344,X
29,1713944854110,24/04/2024 07:47:34,1713944854159,2,24/04/2024 09:47:34,143617,34,task-xrbt,,37232506,vhyg4,9856748,,complete,,,computer,Desktop or Laptop,Windows 10,Chrome 124.0.0.0,1920x1080,1920x1080,,,,Alternating Serial Reaction Time (ASRT) task,5,ASRT,497.3999999994412,,70,,,serial-reaction-time,28,1060763,0.0-267.0-0.0,,,[],,"[[1,1,1,1]]","[0,0]",R,1,1,25,2314,1,1,s,f,497.3999999994412,441,X
30,1713944854518,24/04/2024 07:47:34,1713944854567,2,24/04/2024 09:47:34,143617,34,task-xrbt,,37232506,vhyg4,9856748,,complete,,,computer,Desktop or Laptop,Windows 10,Chrome 124.0.0.0,1920x1080,1920x1080,,,,Alternating Serial Reaction Time (ASRT) task,5,ASRT,381.6000000005588,,83,,,serial-reaction-time,29,1061170,0.0-268.0-0.0,1,,[],,"[[1,1,1,1]]","[0,0]",R,1,0,25,2314,1,1,s,s,879,441,X
31,1713944855661,24/04/2024 07:47:35,1713944855706,2,24/04/2024 09:47:35,143617,34,task-xrbt,,37232506,vhyg4,9856748,,complete,,,computer,Desktop or Laptop,Windows 10,Chrome 124.0.0.0,1920x1080,1920x1080,,,,Alternating Serial Reaction Time (ASRT) task,5,ASRT,617.0999999996275,,70,,,serial-reaction-time,30,1062310,0.0-278.0-0.0,1,,[],,"[[1,1,1,1]]","[0,1]",R,1,1,26,2314,1,2,f,f,617.0999999996275,412,X
32,1713944856518,24/04/2024 07:47:36,1713944856574,2,24/04/2024 09:47:36,143617,34,task-xrbt,,37232506,vhyg4,9856748,,complete,,,computer,Desktop or Laptop,Windows 10,Chrome 124.0.0.0,1920x1080,1920x1080,,,,Alternating Serial Reaction Time (ASRT) task,5,ASRT,340.5,,70,,,serial-reaction-time,31,1063178,0.0-289.0-0.0,1,,[],,"[[1,1,1,1]]","[0,1]",R,1,1,27,2314,1,2,f,f,340.5,122,X
33,1713944857529,24/04/2024 07:47:37,1713944857575,2,24/04/2024 09:47:37,143617,34,task-xrbt,,37232506,vhyg4,9856748,,complete,,,computer,Desktop or Laptop,Windows 10,Chrome 124.0.0.0,1920x1080,1920x1080,,,,Alternating Serial Reaction Time (ASRT) task,5,ASRT,473.09999999962747,,74,,,serial-reaction-time,32,1064179,0.0-300.0-0.0,1,,[],,"[[1,1,1,1]]","[0,2]",R,1,1,28,2314,1,3,j,j,473.09999999962747,223,X
34,1713944858329,24/04/2024 07:47:38,1713944858382,2,24/04/2024 09:47:38,143617,34,task-xrbt,,37232506,vhyg4,9856748,,complete,,,computer,Desktop or Laptop,Windows 10,Chrome 124.0.0.0,1920x1080,1920x1080,,,,Alternating Serial Reaction Time (ASRT) task,5,ASRT,276.79999999981374,,76,,,serial-reaction-time,33,1064986,0.0-311.0-0.0,1,,[],,"[[1,1,1,1]]","[0,3]",R,1,1,29,2314,1,4,l,l,276.79999999981374,234,X
35,1713944859286,24/04/2024 07:47:39,1713944859330,2,24/04/2024 09:47:39,143617,34,task-xrbt,,37232506,vhyg4,9856748,,complete,,,computer,Desktop or Laptop,Windows 10,Chrome 124.0.0.0,1920x1080,1920x1080,,,,Alternating Serial Reaction Time (ASRT) task,5,ASRT,413.20000000018626,,83,,,serial-reaction-time,34,1065933,0.0-322.0-0.0,1,,[],,"[[1,1,1,1]]","[0,0]",R,1,1,30,2314,1,1,s,s,413.20000000018626,341,X
36,1713944860181,24/04/2024 07:47:40,1713944860236,2,24/04/2024 09:47:40,143617,34,task-xrbt,,37232506,vhyg4,9856748,,complete,,,computer,Desktop or Laptop,Windows 10,Chrome 124.0.0.0,1920x1080,1920x1080,,,,Alternating Serial Reaction Time (ASRT) task,5,ASRT,380.5,,83,,,serial-reaction-time,35,1066840,0.0-333.0-0.0,,,[],,"[[1,1,1,1]]","[0,1]",R,1,1,31,2314,1,2,f,s,380.5,412,X
37,1713944860574,24/04/2024 07:47:40,1713944860622,2,24/04/2024 09:47:40,143617,34,task-xrbt,,37232506,vhyg4,9856748,,complete,,,computer,Desktop or Laptop,Windows 10,Chrome 124.0.0.0,1920x1080,1920x1080,,,,Alternating Serial Reaction Time (ASRT) task,5,ASRT,359.29999999981374,,70,,,serial-reaction-time,36,1067226,0.0-334.0-0.0,1,,[],,"[[1,1,1,1]]","[0,1]",R,1,0,31,2314,1,2,f,f,739.7999999998137,412,X
38,1713944861530,24/04/2024 07:47:41,1713944861582,2,24/04/2024 09:47:41,143617,34,task-xrbt,,37232506,vhyg4,9856748,,complete,,,computer,Desktop or Laptop,Windows 10,Chrome 124.0.0.0,1920x1080,1920x1080,,,,Alternating Serial Reaction Time (ASRT) task,5,ASRT,429.90000000037253,,76,,,serial-reaction-time,37,1068186,0.0-344.0-0.0,1,,[],,"[[1,1,1,1]]","[0,3]",R,1,1,32,2314,1,4,l,l,429.90000000037253,124,X
39,1713944862523,24/04/2024 07:47:42,1713944862574,2,24/04/2024 09:47:42,143617,34,task-xrbt,,37232506,vhyg4,9856748,,complete,,,computer,Desktop or Laptop,Windows 10,Chrome 124.0.0.0,1920x1080,1920x1080,,,,Alternating Serial Reaction Time (ASRT) task,5,ASRT,463.29999999981374,,83,,,serial-reaction-time,38,1069178,0.0-355.0-0.0,1,,[],,"[[1,1,1,1]]","[0,0]",R,1,1,33,2314,1,1,s,s,463.29999999981374,241,X
40,1713944863435,24/04/2024 07:47:43,1713944863478,2,24/04/2024 09:47:43,143617,34,task-xrbt,,37232506,vhyg4,9856748,,complete,,,computer,Desktop or Laptop,Windows 10,Chrome 124.0.0.0,1920x1080,1920x1080,,,,Alternating Serial Reaction Time (ASRT) task,5,ASRT,377.70000000018626,,74,,,serial-reaction-time,39,1070082,0.0-366.0-0.0,1,,[],,"[[1,1,1,1]]","[0,2]",R,1,1,34,2314,1,3,j,j,377.70000000018626,413,X
41,1713944864565,24/04/2024 07:47:44,1713944864599,2,24/04/2024 09:47:44,143617,34,task-xrbt,,37232506,vhyg4,9856748,,complete,,,computer,Desktop or Laptop,Windows 10,Chrome 124.0.0.0,1920x1080,1920x1080,,,,Alternating Serial Reaction Time (ASRT) task,5,ASRT,591.3000000007451,,70,,,serial-reaction-time,40,1071203,0.0-377.0-0.0,1,,[],,"[[1,1,1,1]]","[0,1]",R,1,1,35,2314,1,2,f,f,591.3000000007451,132,X
42,1713944865454,24/04/2024 07:47:45,1713944865510,2,24/04/2024 09:47:45,143617,34,task-xrbt,,37232506,vhyg4,9856748,,complete,,,computer,Desktop or Laptop,Windows 10,Chrome 124.0.0.0,1920x1080,1920x1080,,,,Alternating Serial Reaction Time (ASRT) task,5,ASRT,388.8999999994412,,74,,,serial-reaction-time,41,1072114,0.0-388.0-0.0,1,,[],,"[[1,1,1,1]]","[0,2]",R,1,1,36,2314,1,3,j,j,388.8999999994412,323,X
43,1713944866317,24/04/2024 07:47:46,1713944866367,2,24/04/2024 09:47:46,143617,34,task-xrbt,,37232506,vhyg4,9856748,,complete,,,computer,Desktop or Laptop,Windows 10,Chrome 124.0.0.0,1920x1080,1920x1080,,,,Alternating Serial Reaction Time (ASRT) task,5,ASRT,330,,70,,,serial-reaction-time,42,1072971,0.0-399.0-0.0,1,,[],,"[[1,1,1,1]]","[0,1]",R,1,1,37,2314,1,2,f,f,330,232,X
44,1713944867234,24/04/2024 07:47:47,1713944867285,2,24/04/2024 09:47:47,143617,34,task-xrbt,,37232506,vhyg4,9856748,,complete,,,computer,Desktop or Laptop,Windows 10,Chrome 124.0.0.0,1920x1080,1920x1080,,,,Alternating Serial Reaction Time (ASRT) task,5,ASRT,389.5,,70,,,serial-reaction-time,43,1073889,0.0-410.0-0.0,1,,[],,"[[1,1,1,1]]","[0,1]",R,1,1,38,2314,1,2,f,f,389.5,322,X
45,1713944868158,24/04/2024 07:47:48,1713944868207,2,24/04/2024 09:47:48,143617,34,task-xrbt,,37232506,vhyg4,9856748,,complete,,,computer,Desktop or Laptop,Windows 10,Chrome 124.0.0.0,1920x1080,1920x1080,,,,Alternating Serial Reaction Time (ASRT) task,5,ASRT,394.59999999962747,,76,,,serial-reaction-time,44,1074811,0.0-421.0-0.0,1,,[],,"[[1,1,1,1]]","[0,3]",R,1,1,39,2314,1,4,l,l,394.59999999962747,224,X
46,1713944869190,24/04/2024 07:47:49,1713944869251,2,24/04/2024 09:47:49,143617,34,task-xrbt,,37232506,vhyg4,9856748,,complete,,,computer,Desktop or Laptop,Windows 10,Chrome 124.0.0.0,1920x1080,1920x1080,,,,Alternating Serial Reaction Time (ASRT) task,5,ASRT,517.7999999998137,,83,,,serial-reaction-time,45,1075855,0.0-432.0-0.0,1,,[],,"[[1,1,1,1]]","[0,0]",R,1,1,40,2314,1,1,s,s,517.7999999998137,241,X
47,1713944870296,24/04/2024 07:47:50,1713944870350,2,24/04/2024 09:47:50,143617,34,task-xrbt,,37232506,vhyg4,9856748,,complete,,,computer,Desktop or Laptop,Windows 10,Chrome 124.0.0.0,1920x1080,1920x1080,,,,Alternating Serial Reaction Time (ASRT) task,5,ASRT,564.3999999994412,,70,,,serial-reaction-time,46,1076954,0.0-443.0-0.0,1,,[],,"[[1,1,1,1]]","[0,1]",R,1,1,41,2314,1,2,f,f,564.3999999994412,412,X
48,1713944871242,24/04/2024 07:47:51,1713944871288,2,24/04/2024 09:47:51,143617,34,task-xrbt,,37232506,vhyg4,9856748,,complete,,,computer,Desktop or Laptop,Windows 10,Chrome 124.0.0.0,1920x1080,1920x1080,,,,Alternating Serial Reaction Time (ASRT) task,5,ASRT,408.8999999994412,,74,,,serial-reaction-time,47,1077891,0.0-454.0-0.0,1,,[],,"[[1,1,1,1]]","[0,2]",R,1,1,42,2314,1,3,j,j,408.8999999994412,123,X
49,1713944872188,24/04/2024 07:47:52,1713944872256,2,24/04/2024 09:47:52,143617,34,task-xrbt,,37232506,vhyg4,9856748,,complete,,,computer,Desktop or Laptop,Windows 10,Chrome 124.0.0.0,1920x1080,1920x1080,,,,Alternating Serial Reaction Time (ASRT) task,5,ASRT,438,,83,,,serial-reaction-time,48,1078860,0.0-465.0-0.0,1,,[],,"[[1,1,1,1]]","[0,0]",R,1,1,43,2314,1,1,s,s,438,231,X
50,1713944873132,24/04/2024 07:47:53,1713944873175,2,24/04/2024 09:47:53,143617,34,task-xrbt,,37232506,vhyg4,9856748,,complete,,,computer,Desktop or Laptop,Windows 10,Chrome 124.0.0.0,1920x1080,1920x1080,,,,Alternating Serial Reaction Time (ASRT) task,5,ASRT,387.79999999981374,,83,,,serial-reaction-time,49,1079778,0.0-476.0-0.0,1,,[],,"[[1,1,1,1]]","[0,0]",R,1,1,44,2314,1,1,s,s,387.79999999981374,311,X
51,1713944874138,24/04/2024 07:47:54,1713944874201,2,24/04/2024 09:47:54,143617,34,task-xrbt,,37232506,vhyg4,9856748,,complete,,,computer,Desktop or Laptop,Windows 10,Chrome 124.0.0.0,1920x1080,1920x1080,,,,Alternating Serial Reaction Time (ASRT) task,5,ASRT,494.3999999994412,,76,,,serial-reaction-time,50,1080804,0.0-487.0-0.0,1,,[],,"[[1,1,1,1]]","[0,3]",R,1,1,45,2314,1,4,l,l,494.3999999994412,114,X
52,1713944875033,24/04/2024 07:47:55,1713944875100,2,24/04/2024 09:47:55,143617,34,task-xrbt,,37232506,vhyg4,9856748,,complete,,,computer,Desktop or Laptop,Windows 10,Chrome 124.0.0.0,1920x1080,1920x1080,,,,Alternating Serial Reaction Time (ASRT) task,5,ASRT,384.70000000018626,,74,,,serial-reaction-time,51,1081704,0.0-498.0-0.0,1,,[],,"[[1,1,1,1]]","[0,2]",R,1,1,46,2314,1,3,j,j,384.70000000018626,143,X
53,1713944876040,24/04/2024 07:47:56,1713944876088,2,24/04/2024 09:47:56,143617,34,task-xrbt,,37232506,vhyg4,9856748,,complete,,,computer,Desktop or Laptop,Windows 10,Chrome 124.0.0.0,1920x1080,1920x1080,,,,Alternating Serial Reaction Time (ASRT) task,5,ASRT,461.90000000037253,,70,,,serial-reaction-time,52,1082691,0.0-509.0-0.0,1,,[],,"[[1,1,1,1]]","[0,1]",R,1,1,47,2314,1,2,f,f,461.90000000037253,432,X
54,1713944877027,24/04/2024 07:47:57,1713944877098,2,24/04/2024 09:47:57,143617,34,task-xrbt,,37232506,vhyg4,9856748,,complete,,,computer,Desktop or Laptop,Windows 10,Chrome 124.0.0.0,1920x1080,1920x1080,,,,Alternating Serial Reaction Time (ASRT) task,5,ASRT,477.69999999925494,,83,,,serial-reaction-time,53,1083701,0.0-520.0-0.0,1,,[],,"[[1,1,1,1]]","[0,0]",R,1,1,48,2314,1,1,s,s,477.69999999925494,321,X
55,1713944877947,24/04/2024 07:47:57,1713944878017,2,24/04/2024 09:47:58,143617,34,task-xrbt,,37232506,vhyg4,9856748,,complete,,,computer,Desktop or Laptop,Windows 10,Chrome 124.0.0.0,1920x1080,1920x1080,,,,Alternating Serial Reaction Time (ASRT) task,5,ASRT,391.29999999981374,,76,,,serial-reaction-time,54,1084621,0.0-531.0-0.0,1,,[],,"[[1,1,1,1]]","[0,3]",R,1,1,49,2314,1,4,l,l,391.29999999981374,214,X
56,1713944878947,24/04/2024 07:47:58,1713944879015,2,24/04/2024 09:47:59,143617,34,task-xrbt,,37232506,vhyg4,9856748,,complete,,,computer,Desktop or Laptop,Windows 10,Chrome 124.0.0.0,1920x1080,1920x1080,,,,Alternating Serial Reaction Time (ASRT) task,5,ASRT,468.79999999981374,,70,,,serial-reaction-time,55,1085619,0.0-542.0-0.0,,,[],,"[[1,1,1,1]]","[0,2]",R,1,1,50,2314,1,3,j,f,468.79999999981374,143,X
57,1713944879447,24/04/2024 07:47:59,1713944879515,2,24/04/2024 09:47:59,143617,34,task-xrbt,,37232506,vhyg4,9856748,,complete,,,computer,Desktop or Laptop,Windows 10,Chrome 124.0.0.0,1920x1080,1920x1080,,,,Alternating Serial Reaction Time (ASRT) task,5,ASRT,470.70000000018626,,74,,,serial-reaction-time,56,1086119,0.0-543.0-0.0,1,,[],,"[[1,1,1,1]]","[0,2]",R,1,0,50,2314,1,3,j,j,939.5,143,X
58,1713944880516,24/04/2024 07:48:00,1713944880559,2,24/04/2024 09:48:00,143617,34,task-xrbt,,37232506,vhyg4,9856748,,complete,,,computer,Desktop or Laptop,Windows 10,Chrome 124.0.0.0,1920x1080,1920x1080,,,,Alternating Serial Reaction Time (ASRT) task,5,ASRT,514.5999999996275,,83,,,serial-reaction-time,57,1087163,0.0-553.0-0.0,1,,[],,"[[1,1,1,1]]","[0,0]",R,1,1,51,2314,1,1,s,s,514.5999999996275,431,X
59,1713944881551,24/04/2024 07:48:01,1713944881607,2,24/04/2024 09:48:01,143617,34,task-xrbt,,37232506,vhyg4,9856748,,complete,,,computer,Desktop or Laptop,Windows 10,Chrome 124.0.0.0,1920x1080,1920x1080,,,,Alternating Serial Reaction Time (ASRT) task,5,ASRT,517.6000000005588,,70,,,serial-reaction-time,58,1088211,0.0-564.0-0.0,1,,[],,"[[1,1,1,1]]","[0,1]",R,1,1,52,2314,1,2,f,f,517.6000000005588,312,X
60,1713944882614,24/04/2024 07:48:02,1713944882665,2,24/04/2024 09:48:02,143617,34,task-xrbt,,37232506,vhyg4,9856748,,complete,,,computer,Desktop or Laptop,Windows 10,Chrome 124.0.0.0,1920x1080,1920x1080,,,,Alternating Serial Reaction Time (ASRT) task,5,ASRT,526.7999999998137,,70,,,serial-reaction-time,59,1089269,0.0-575.0-0.0,1,,[],,"[[1,1,1,1]]","[0,1]",R,1,1,53,2314,1,2,f,f,526.7999999998137,122,X
61,1713944883797,24/04/2024 07:48:03,1713944883868,2,24/04/2024 09:48:03,143617,34,task-xrbt,,37232506,vhyg4,9856748,,complete,,,computer,Desktop or Laptop,Windows 10,Chrome 124.0.0.0,1920x1080,1920x1080,,,,Alternating Serial Reaction Time (ASRT) task,5,ASRT,692.4000000003725,,74,,,serial-reaction-time,60,1090472,0.0-586.0-0.0,1,,[],,"[[1,1,1,1]]","[0,2]",R,1,1,54,2314,1,3,j,j,692.4000000003725,223,X
62,1713944884865,24/04/2024 07:48:04,1713944884929,2,24/04/2024 09:48:04,143617,34,task-xrbt,,37232506,vhyg4,9856748,,complete,,,computer,Desktop or Laptop,Windows 10,Chrome 124.0.0.0,1920x1080,1920x1080,,,,Alternating Serial Reaction Time (ASRT) task,5,ASRT,540.8999999994412,,70,,,serial-reaction-time,61,1091533,0.0-597.0-0.0,1,,[],,"[[1,1,1,1]]","[0,1]",R,1,1,55,2314,1,2,f,f,540.8999999994412,232,X
63,1713944885769,24/04/2024 07:48:05,1713944885815,2,24/04/2024 09:48:05,143617,34,task-xrbt,,37232506,vhyg4,9856748,,complete,,,computer,Desktop or Laptop,Windows 10,Chrome 124.0.0.0,1920x1080,1920x1080,,,,Alternating Serial Reaction Time (ASRT) task,5,ASRT,358.59999999962747,,76,,,serial-reaction-time,62,1092419,0.0-608.0-0.0,1,,[],,"[[1,1,1,1]]","[0,3]",R,1,1,56,2314,1,4,l,l,358.59999999962747,324,X
64,1713944886771,24/04/2024 07:48:06,1713944886831,2,24/04/2024 09:48:06,143617,34,task-xrbt,,37232506,vhyg4,9856748,,complete,,,computer,Desktop or Laptop,Windows 10,Chrome 124.0.0.0,1920x1080,1920x1080,,,,Alternating Serial Reaction Time (ASRT) task,5,ASRT,486.3999999994412,,70,,,serial-reaction-time,63,1093435,0.0-619.0-0.0,,,[],,"[[1,1,1,1]]","[0,0]",R,1,1,57,2314,1,1,s,f,486.3999999994412,241,X
65,1713944887615,24/04/2024 07:48:07,1713944887662,2,24/04/2024 09:48:07,143617,34,task-xrbt,,37232506,vhyg4,9856748,,complete,,,computer,Desktop or Laptop,Windows 10,Chrome 124.0.0.0,1920x1080,1920x1080,,,,Alternating Serial Reaction Time (ASRT) task,5,ASRT,803.3000000007451,,83,,,serial-reaction-time,64,1094266,0.0-620.0-0.0,1,,[],,"[[1,1,1,1]]","[0,0]",R,1,0,57,2314,1,1,s,s,1289.7000000001863,241,X
66,1713944888571,24/04/2024 07:48:08,1713944888639,2,24/04/2024 09:48:08,143617,34,task-xrbt,,37232506,vhyg4,9856748,,complete,,,computer,Desktop or Laptop,Windows 10,Chrome 124.0.0.0,1920x1080,1920x1080,,,,Alternating Serial Reaction Time (ASRT) task,5,ASRT,459.8999999994412,,70,,,serial-reaction-time,65,1095243,0.0-630.0-0.0,1,,[],,"[[1,1,1,1]]","[0,1]",R,1,1,58,2314,1,2,f,f,459.8999999994412,412,X
67,1713944889497,24/04/2024 07:48:09,1713944889548,2,24/04/2024 09:48:09,143617,34,task-xrbt,,37232506,vhyg4,9856748,,complete,,,computer,Desktop or Laptop,Windows 10,Chrome 124.0.0.0,1920x1080,1920x1080,,,,Alternating Serial Reaction Time (ASRT) task,5,ASRT,398.69999999925494,,74,,,serial-reaction-time,66,1096152,0.0-641.0-0.0,1,,[],,"[[1,1,1,1]]","[0,2]",R,1,1,59,2314,1,3,j,j,398.69999999925494,123,X
68,1713944890416,24/04/2024 07:48:10,1713944890462,2,24/04/2024 09:48:10,143617,34,task-xrbt,,37232506,vhyg4,9856748,,complete,,,computer,Desktop or Laptop,Windows 10,Chrome 124.0.0.0,1920x1080,1920x1080,,,,Alternating Serial Reaction Time (ASRT) task,5,ASRT,389,,74,,,serial-reaction-time,67,1097066,0.0-652.0-0.0,1,,[],,"[[1,1,1,1]]","[0,2]",R,1,1,60,2314,1,3,j,j,389,233,X
69,1713944891334,24/04/2024 07:48:11,1713944891405,2,24/04/2024 09:48:11,143617,34,task-xrbt,,37232506,vhyg4,9856748,,complete,,,computer,Desktop or Laptop,Windows 10,Chrome 124.0.0.0,1920x1080,1920x1080,,,,Alternating Serial Reaction Time (ASRT) task,5,ASRT,415.40000000037253,,70,,,serial-reaction-time,68,1098009,0.0-663.0-0.0,1,,[],,"[[1,1,1,1]]","[0,1]",R,1,1,61,2314,1,2,f,f,415.40000000037253,332,X
70,1713944892292,24/04/2024 07:48:12,1713944892342,2,24/04/2024 09:48:12,143617,34,task-xrbt,,37232506,vhyg4,9856748,,complete,,,computer,Desktop or Laptop,Windows 10,Chrome 124.0.0.0,1920x1080,1920x1080,,,,Alternating Serial Reaction Time (ASRT) task,5,ASRT,406.90000000037253,,74,,,serial-reaction-time,69,1098946,0.0-674.0-0.0,1,,[],,"[[1,1,1,1]]","[0,2]",R,1,1,62,2314,1,3,j,j,406.90000000037253,323,X
71,1713944893179,24/04/2024 07:48:13,1713944893240,2,24/04/2024 09:48:13,143617,34,task-xrbt,,37232506,vhyg4,9856748,,complete,,,computer,Desktop or Laptop,Windows 10,Chrome 124.0.0.0,1920x1080,1920x1080,,,,Alternating Serial Reaction Time (ASRT) task,5,ASRT,368.79999999981374,,74,,,serial-reaction-time,70,1099844,0.0-685.0-0.0,1,,[],,"[[1,1,1,1]]","[0,2]",R,1,1,63,2314,1,3,j,j,368.79999999981374,233,X
72,1713944894113,24/04/2024 07:48:14,1713944894183,2,24/04/2024 09:48:14,143617,34,task-xrbt,,37232506,vhyg4,9856748,,complete,,,computer,Desktop or Laptop,Windows 10,Chrome 124.0.0.0,1920x1080,1920x1080,,,,Alternating Serial Reaction Time (ASRT) task,5,ASRT,428.5,,70,,,serial-reaction-time,71,1100787,0.0-696.0-0.0,1,,[],,"[[1,1,1,1]]","[0,1]",R,1,1,64,2314,1,2,f,f,428.5,332,X
73,1713944895066,24/04/2024 07:48:15,1713944895111,2,24/04/2024 09:48:15,143617,34,task-xrbt,,37232506,vhyg4,9856748,,complete,,,computer,Desktop or Laptop,Windows 10,Chrome 124.0.0.0,1920x1080,1920x1080,,,,Alternating Serial Reaction Time (ASRT) task,5,ASRT,397,,74,,,serial-reaction-time,72,1101714,0.0-707.0-0.0,1,,[],,"[[1,1,1,1]]","[0,2]",R,1,1,65,2314,1,3,j,j,397,323,X
74,1713944895877,24/04/2024 07:48:15,1713944895943,2,24/04/2024 09:48:15,143617,34,task-xrbt,,37232506,vhyg4,9856748,,complete,,,computer,Desktop or Laptop,Windows 10,Chrome 124.0.0.0,1920x1080,1920x1080,,,,Alternating Serial Reaction Time (ASRT) task,5,ASRT,300.5,,70,,,serial-reaction-time,73,1102547,0.0-718.0-0.0,1,,[],,"[[1,1,1,1]]","[0,1]",R,1,1,66,2314,1,2,f,f,300.5,232,X
75,1713944896781,24/04/2024 07:48:16,1713944896838,2,24/04/2024 09:48:16,143617,34,task-xrbt,,37232506,vhyg4,9856748,,complete,,,computer,Desktop or Laptop,Windows 10,Chrome 124.0.0.0,1920x1080,1920x1080,,,,Alternating Serial Reaction Time (ASRT) task,5,ASRT,364.6000000005588,,76,,,serial-reaction-time,74,1103442,0.0-729.0-0.0,1,,[],,"[[1,1,1,1]]","[0,3]",R,1,1,67,2314,1,4,l,l,364.6000000005588,324,X
76,1713944897666,24/04/2024 07:48:17,1713944897738,2,24/04/2024 09:48:17,143617,34,task-xrbt,,37232506,vhyg4,9856748,,complete,,,computer,Desktop or Laptop,Windows 10,Chrome 124.0.0.0,1920x1080,1920x1080,,,,Alternating Serial Reaction Time (ASRT) task,5,ASRT,373.5,,74,,,serial-reaction-time,75,1104342,0.0-740.0-0.0,1,,[],,"[[1,1,1,1]]","[0,2]",R,1,1,68,2314,1,3,j,j,373.5,243,X
77,1713944898584,24/04/2024 07:48:18,1713944898631,2,24/04/2024 09:48:18,143617,34,task-xrbt,,37232506,vhyg4,9856748,,complete,,,computer,Desktop or Laptop,Windows 10,Chrome 124.0.0.0,1920x1080,1920x1080,,,,Alternating Serial Reaction Time (ASRT) task,5,ASRT,365.29999999981374,,70,,,serial-reaction-time,76,1105234,0.0-751.0-0.0,,,[],,"[[1,1,1,1]]","[0,0]",R,1,1,69,2314,1,1,s,f,365.29999999981374,431,X
78,1713944898778,24/04/2024 07:48:18,1713944898845,2,24/04/2024 09:48:18,143617,34,task-xrbt,,37232506,vhyg4,9856748,,complete,,,computer,Desktop or Laptop,Windows 10,Chrome 124.0.0.0,1920x1080,1920x1080,,,,Alternating Serial Reaction Time (ASRT) task,5,ASRT,189.79999999981374,,83,,,serial-reaction-time,77,1105449,0.0-752.0-0.0,1,,[],,"[[1,1,1,1]]","[0,0]",R,1,0,69,2314,1,1,s,s,555.0999999996275,431,X
79,1713944900228,24/04/2024 07:48:20,1713944900212,2,24/04/2024 09:48:20,143617,34,task-xrbt,,37232506,vhyg4,9856748,,complete,,,computer,Desktop or Laptop,Windows 10,Chrome 124.0.0.0,1920x1080,1920x1080,,,,Alternating Serial Reaction Time (ASRT) task,5,ASRT,841.3999999994412,,70,,,serial-reaction-time,78,1106815,0.0-762.0-0.0,1,,[],,"[[1,1,1,1]]","[0,1]",R,1,1,70,2314,1,2,f,f,841.3999999994412,312,X
80,1713944901112,24/04/2024 07:48:21,1713944901177,2,24/04/2024 09:48:21,143617,34,task-xrbt,,37232506,vhyg4,9856748,,complete,,,computer,Desktop or Laptop,Windows 10,Chrome 124.0.0.0,1920x1080,1920x1080,,,,Alternating Serial Reaction Time (ASRT) task,5,ASRT,434.5,,74,,,serial-reaction-time,79,1107781,0.0-773.0-0.0,1,,[],,"[[1,1,1,1]]","[0,2]",R,1,1,71,2314,1,3,j,j,434.5,123,X
81,1713944902004,24/04/2024 07:48:22,1713944902056,2,24/04/2024 09:48:22,143617,34,task-xrbt,,37232506,vhyg4,9856748,,complete,,,computer,Desktop or Laptop,Windows 10,Chrome 124.0.0.0,1920x1080,1920x1080,,,,Alternating Serial Reaction Time (ASRT) task,5,ASRT,349.69999999925494,,83,,,serial-reaction-time,80,1108660,0.0-784.0-0.0,1,,[],,"[[1,1,1,1]]","[0,0]",R,1,1,72,2314,1,1,s,s,349.69999999925494,231,X
82,1713944902924,24/04/2024 07:48:22,1713944902997,2,24/04/2024 09:48:22,143617,34,task-xrbt,,37232506,vhyg4,9856748,,complete,,,computer,Desktop or Laptop,Windows 10,Chrome 124.0.0.0,1920x1080,1920x1080,,,,Alternating Serial Reaction Time (ASRT) task,5,ASRT,429.30000000074506,,83,,,serial-reaction-time,81,1109601,0.0-795.0-0.0,1,,[],,"[[1,1,1,1]]","[0,0]",R,1,1,73,2314,1,1,s,s,429.30000000074506,311,X
83,1713944903751,24/04/2024 07:48:23,1713944903823,2,24/04/2024 09:48:23,143617,34,task-xrbt,,37232506,vhyg4,9856748,,complete,,,computer,Desktop or Laptop,Windows 10,Chrome 124.0.0.0,1920x1080,1920x1080,,,,Alternating Serial Reaction Time (ASRT) task,5,ASRT,299.80000000074506,,83,,,serial-reaction-time,82,1110427,0.0-806.0-0.0,1,,[],,"[[1,1,1,1]]","[0,0]",R,1,1,74,2314,1,1,s,s,299.80000000074506,111,X
84,1713944904662,24/04/2024 07:48:24,1713944904735,2,24/04/2024 09:48:24,143617,34,task-xrbt,,37232506,vhyg4,9856748,,complete,,,computer,Desktop or Laptop,Windows 10,Chrome 124.0.0.0,1920x1080,1920x1080,,,,Alternating Serial Reaction Time (ASRT) task,5,ASRT,398.79999999981374,,74,,,serial-reaction-time,83,1111339,0.0-817.0-0.0,,,[],,"[[1,1,1,1]]","[0,1]",R,1,1,75,2314,1,2,f,j,398.79999999981374,112,X
85,1713944905046,24/04/2024 07:48:25,1713944905111,2,24/04/2024 09:48:25,143617,34,task-xrbt,,37232506,vhyg4,9856748,,complete,,,computer,Desktop or Laptop,Windows 10,Chrome 124.0.0.0,1920x1080,1920x1080,,,,Alternating Serial Reaction Time (ASRT) task,5,ASRT,350.70000000018626,,70,,,serial-reaction-time,84,1111715,0.0-818.0-0.0,1,,[],,"[[1,1,1,1]]","[0,1]",R,1,0,75,2314,1,2,f,f,749.5,112,X
86,1713944905948,24/04/2024 07:48:25,1713944906014,2,24/04/2024 09:48:26,143617,34,task-xrbt,,37232506,vhyg4,9856748,,complete,,,computer,Desktop or Laptop,Windows 10,Chrome 124.0.0.0,1920x1080,1920x1080,,,,Alternating Serial Reaction Time (ASRT) task,5,ASRT,375.40000000037253,,76,,,serial-reaction-time,85,1112617,0.0-828.0-0.0,1,,[],,"[[1,1,1,1]]","[0,3]",R,1,1,76,2314,1,4,l,l,375.40000000037253,124,X
87,1713944906998,24/04/2024 07:48:26,1713944907063,2,24/04/2024 09:48:27,143617,34,task-xrbt,,37232506,vhyg4,9856748,,complete,,,computer,Desktop or Laptop,Windows 10,Chrome 124.0.0.0,1920x1080,1920x1080,,,,Alternating Serial Reaction Time (ASRT) task,5,ASRT,522.5,,83,,,serial-reaction-time,86,1113667,0.0-839.0-0.0,1,,[],,"[[1,1,1,1]]","[0,0]",R,1,1,77,2314,1,1,s,s,522.5,241,X
88,1713944907886,24/04/2024 07:48:27,1713944907952,2,24/04/2024 09:48:27,143617,34,task-xrbt,,37232506,vhyg4,9856748,,complete,,,computer,Desktop or Laptop,Windows 10,Chrome 124.0.0.0,1920x1080,1920x1080,,,,Alternating Serial Reaction Time (ASRT) task,5,ASRT,360,,83,,,serial-reaction-time,87,1114556,0.0-850.0-0.0,1,,[],,"[[1,1,1,1]]","[0,0]",R,1,1,78,2314,1,1,s,s,360,411,X
89,1713944908838,24/04/2024 07:48:28,1713944908879,2,24/04/2024 09:48:28,143617,34,task-xrbt,,37232506,vhyg4,9856748,,complete,,,computer,Desktop or Laptop,Windows 10,Chrome 124.0.0.0,1920x1080,1920x1080,,,,Alternating Serial Reaction Time (ASRT) task,5,ASRT,397.20000000018626,,74,,,serial-reaction-time,88,1115483,0.0-861.0-0.0,1,,[],,"[[1,1,1,1]]","[0,2]",R,1,1,79,2314,1,3,j,j,397.20000000018626,113,X
90,1713944909692,24/04/2024 07:48:29,1713944909751,2,24/04/2024 09:48:29,143617,34,task-xrbt,,37232506,vhyg4,9856748,,complete,,,computer,Desktop or Laptop,Windows 10,Chrome 124.0.0.0,1920x1080,1920x1080,,,,Alternating Serial Reaction Time (ASRT) task,5,ASRT,340.80000000074506,,74,,,serial-reaction-time,89,1116355,0.0-872.0-0.0,1,,[],,"[[1,1,1,1]]","[0,2]",R,1,1,80,2314,1,3,j,j,340.80000000074506,133,X
91,1713944910603,24/04/2024 07:48:30,1713944910674,2,24/04/2024 09:48:30,143617,34,task-xrbt,,37232506,vhyg4,9856748,,complete,,,computer,Desktop or Laptop,Windows 10,Chrome 124.0.0.0,1920x1080,1920x1080,,,,Alternating Serial Reaction Time (ASRT) task,5,ASRT,398.09999999962747,,74,,,serial-reaction-time,90,1117278,0.0-883.0-0.0,1,,[],,"[[1,1,1,1]]","[0,2]",R,1,1,81,2314,1,3,j,j,398.09999999962747,333,X
92,1713944911463,24/04/2024 07:48:31,1713944911534,2,24/04/2024 09:48:31,143617,34,task-xrbt,,37232506,vhyg4,9856748,,complete,,,computer,Desktop or Laptop,Windows 10,Chrome 124.0.0.0,1920x1080,1920x1080,,,,Alternating Serial Reaction Time (ASRT) task,5,ASRT,334.09999999962747,,70,,,serial-reaction-time,91,1118138,0.0-894.0-0.0,1,,[],,"[[1,1,1,1]]","[0,1]",R,1,1,82,2314,1,2,f,f,334.09999999962747,332,X
93,1713944912408,24/04/2024 07:48:32,1713944912455,2,24/04/2024 09:48:32,143617,34,task-xrbt,,37232506,vhyg4,9856748,,complete,,,computer,Desktop or Laptop,Windows 10,Chrome 124.0.0.0,1920x1080,1920x1080,,,,Alternating Serial Reaction Time (ASRT) task,5,ASRT,393.8999999994412,,76,,,serial-reaction-time,92,1119059,0.0-905.0-0.0,1,,[],,"[[1,1,1,1]]","[0,3]",R,1,1,83,2314,1,4,l,l,393.8999999994412,324,X
94,1713944913303,24/04/2024 07:48:33,1713944913372,2,24/04/2024 09:48:33,143617,34,task-xrbt,,37232506,vhyg4,9856748,,complete,,,computer,Desktop or Laptop,Windows 10,Chrome 124.0.0.0,1920x1080,1920x1080,,,,Alternating Serial Reaction Time (ASRT) task,5,ASRT,404.40000000037253,,83,,,serial-reaction-time,93,1119976,0.0-916.0-0.0,1,,[],,"[[1,1,1,1]]","[0,0]",R,1,1,84,2314,1,1,s,s,404.40000000037253,241,X
95,1713944914259,24/04/2024 07:48:34,1713944914306,2,24/04/2024 09:48:34,143617,34,task-xrbt,,37232506,vhyg4,9856748,,complete,,,computer,Desktop or Laptop,Windows 10,Chrome 124.0.0.0,1920x1080,1920x1080,,,,Alternating Serial Reaction Time (ASRT) task,5,ASRT,405.79999999981374,,74,,,serial-reaction-time,94,1120909,0.0-927.0-0.0,1,,[],,"[[1,1,1,1]]","[0,2]",R,1,1,85,2314,1,3,j,j,405.79999999981374,413,X
96,1713944919284,24/04/2024 07:48:39,1713944919343,2,24/04/2024 09:48:39,143617,34,task-xrbt,,37232506,vhyg4,9856748,,complete,,,computer,Desktop or Laptop,Windows 10,Chrome 124.0.0.0,1920x1080,1920x1080,,,,Alternating Serial Reaction Time (ASRT) task,5,ASRT,,<h2>End of block 1</h2><br><p>Your accuracy: 92%</p><p>Your average response time: 423 ms</p><br><p class='message'><strong>Please try to be faster.</strong></p>,,,,html-keyboard-response,95,1125946,0.0-938.0,,,[],,,,,,,,,,,,,,,
97,1713944920408,24/04/2024 07:48:40,1713944920473,2,24/04/2024 09:48:40,143617,34,task-xrbt,,37232506,vhyg4,9856748,,complete,,,computer,Desktop or Laptop,Windows 10,Chrome 124.0.0.0,1920x1080,1920x1080,,,,Alternating Serial Reaction Time (ASRT) task,5,ASRT,,"
    <p>Please place your fingers in this position on the keyboard:</p>
    <img src=/task/752107/5/asset/keyboard.bmp height='10%'>
    <h2>Please stay, the task will continue in a few seconds.<br><br>Please, when the first dog appears, continue the task immediately!</h2>",,,,html-keyboard-response,96,1127077,0.0-939.0,,,[],,,,,,,,,,,,,,,
98,1713944921169,24/04/2024 07:48:41,1713944921223,2,24/04/2024 09:48:41,143617,34,task-xrbt,,37232506,vhyg4,9856748,,complete,,,computer,Desktop or Laptop,Windows 10,Chrome 124.0.0.0,1920x1080,1920x1080,,,,Alternating Serial Reaction Time (ASRT) task,5,ASRT,720.2000000001863,,83,,,serial-reaction-time,97,1127827,0.0-940.0-0.0,1,,[],,"[[1,1,1,1]]","[0,0]",R,2,1,1,2314,1,1,s,s,720.2000000001863,1,X
99,1713944921993,24/04/2024 07:48:41,1713944922048,2,24/04/2024 09:48:42,143617,34,task-xrbt,,37232506,vhyg4,9856748,,complete,,,computer,Desktop or Laptop,Windows 10,Chrome 124.0.0.0,1920x1080,1920x1080,,,,Alternating Serial Reaction Time (ASRT) task,5,ASRT,297.70000000018626,,83,,,serial-reaction-time,98,1128651,0.0-951.0-0.0,1,,[],,"[[1,1,1,1]]","[0,0]",R,2,1,2,2314,1,1,s,s,297.70000000018626,11,X
100,1713944922876,24/04/2024 07:48:42,1713944922939,2,24/04/2024 09:48:42,143617,34,task-xrbt,,37232506,vhyg4,9856748,,complete,,,computer,Desktop or Laptop,Windows 10,Chrome 124.0.0.0,1920x1080,1920x1080,,,,Alternating Serial Reaction Time (ASRT) task,5,ASRT,365.6000000005588,,74,,,serial-reaction-time,99,1129543,0.0-962.0-0.0,1,,[],,"[[1,1,1,1]]","[0,2]",R,2,1,3,2314,1,3,j,j,365.6000000005588,113,X
101,1713944923805,24/04/2024 07:48:43,1713944923863,2,24/04/2024 09:48:43,143617,34,task-xrbt,,37232506,vhyg4,9856748,,complete,,,computer,Desktop or Laptop,Windows 10,Chrome 124.0.0.0,1920x1080,1920x1080,,,,Alternating Serial Reaction Time (ASRT) task,5,ASRT,395.5,,74,,,serial-reaction-time,100,1130467,0.0-973.0-0.0,1,,[],,"[[1,1,1,1]]","[0,2]",R,2,1,4,2314,1,3,j,j,395.5,133,X
102,1713944924691,24/04/2024 07:48:44,1713944924738,2,24/04/2024 09:48:44,143617,34,task-xrbt,,37232506,vhyg4,9856748,,complete,,,computer,Desktop or Laptop,Windows 10,Chrome 124.0.0.0,1920x1080,1920x1080,,,,Alternating Serial Reaction Time (ASRT) task,5,ASRT,352.1000000005588,,76,,,serial-reaction-time,101,1131342,0.0-984.0-0.0,1,,[],,"[[1,1,1,1]]","[0,3]",R,2,1,5,2314,1,4,l,l,352.1000000005588,334,X
103,1713944925502,24/04/2024 07:48:45,1713944925567,2,24/04/2024 09:48:45,143617,34,task-xrbt,,37232506,vhyg4,9856748,,complete,,,computer,Desktop or Laptop,Windows 10,Chrome 124.0.0.0,1920x1080,1920x1080,,,,Alternating Serial Reaction Time (ASRT) task,5,ASRT,301,,74,,,serial-reaction-time,102,1132171,0.0-995.0-0.0,1,,[],,"[[1,1,1,1]]","[0,2]",R,2,1,6,2314,1,3,j,j,301,343,X
104,1713944926350,24/04/2024 07:48:46,1713944926421,2,24/04/2024 09:48:46,143617,34,task-xrbt,,37232506,vhyg4,9856748,,complete,,,computer,Desktop or Laptop,Windows 10,Chrome 124.0.0.0,1920x1080,1920x1080,,,,Alternating Serial Reaction Time (ASRT) task,5,ASRT,338.20000000018626,,70,,,serial-reaction-time,103,1133025,0.0-1006.0-0.0,1,,[],,"[[1,1,1,1]]","[0,1]",R,2,1,7,2314,1,2,f,f,338.20000000018626,432,X
105,1713944927226,24/04/2024 07:48:47,1713944927285,2,24/04/2024 09:48:47,143617,34,task-xrbt,,37232506,vhyg4,9856748,,complete,,,computer,Desktop or Laptop,Windows 10,Chrome 124.0.0.0,1920x1080,1920x1080,,,,Alternating Serial Reaction Time (ASRT) task,5,ASRT,338.29999999981374,,76,,,serial-reaction-time,104,1133888,0.0-1017.0-0.0,1,,[],,"[[1,1,1,1]]","[0,3]",R,2,1,8,2314,1,4,l,l,338.29999999981374,324,X
106,1713944928138,24/04/2024 07:48:48,1713944928176,2,24/04/2024 09:48:48,143617,34,task-xrbt,,37232506,vhyg4,9856748,,complete,,,computer,Desktop or Laptop,Windows 10,Chrome 124.0.0.0,1920x1080,1920x1080,,,,Alternating Serial Reaction Time (ASRT) task,5,ASRT,362.20000000018626,,76,,,serial-reaction-time,105,1134779,0.0-1028.0-0.0,1,,[],,"[[1,1,1,1]]","[0,3]",R,2,1,9,2314,1,4,l,l,362.20000000018626,244,X
107,1713944928994,24/04/2024 07:48:48,1713944929042,2,24/04/2024 09:48:49,143617,34,task-xrbt,,37232506,vhyg4,9856748,,complete,,,computer,Desktop or Laptop,Windows 10,Chrome 124.0.0.0,1920x1080,1920x1080,,,,Alternating Serial Reaction Time (ASRT) task,5,ASRT,333.09999999962747,,74,,,serial-reaction-time,106,1135646,0.0-1039.0-0.0,1,,[],,"[[1,1,1,1]]","[0,2]",R,2,1,10,2314,1,3,j,j,333.09999999962747,443,X
108,1713944929896,24/04/2024 07:48:49,1713944929943,2,24/04/2024 09:48:49,143617,34,task-xrbt,,37232506,vhyg4,9856748,,complete,,,computer,Desktop or Laptop,Windows 10,Chrome 124.0.0.0,1920x1080,1920x1080,,,,Alternating Serial Reaction Time (ASRT) task,5,ASRT,370.79999999981374,,83,,,serial-reaction-time,107,1136547,0.0-1050.0-0.0,,,[],,"[[1,1,1,1]]","[0,1]",R,2,1,11,2314,1,2,f,s,370.79999999981374,432,X
109,1713944929963,24/04/2024 07:48:49,1713944930011,2,24/04/2024 09:48:50,143617,34,task-xrbt,,37232506,vhyg4,9856748,,complete,,,computer,Desktop or Laptop,Windows 10,Chrome 124.0.0.0,1920x1080,1920x1080,,,,Alternating Serial Reaction Time (ASRT) task,5,ASRT,41,,70,,,serial-reaction-time,108,1136615,0.0-1051.0-0.0,1,,[],,"[[1,1,1,1]]","[0,1]",R,2,0,11,2314,1,2,f,f,411.79999999981374,432,X
110,1713944930848,24/04/2024 07:48:50,1713944930902,2,24/04/2024 09:48:50,143617,34,task-xrbt,,37232506,vhyg4,9856748,,complete,,,computer,Desktop or Laptop,Windows 10,Chrome 124.0.0.0,1920x1080,1920x1080,,,,Alternating Serial Reaction Time (ASRT) task,5,ASRT,364.19999999925494,,70,,,serial-reaction-time,109,1137506,0.0-1061.0-0.0,1,,[],,"[[1,1,1,1]]","[0,1]",R,2,1,12,2314,1,2,f,f,364.19999999925494,322,X
111,1713944931673,24/04/2024 07:48:51,1713944931737,2,24/04/2024 09:48:51,143617,34,task-xrbt,,37232506,vhyg4,9856748,,complete,,,computer,Desktop or Laptop,Windows 10,Chrome 124.0.0.0,1920x1080,1920x1080,,,,Alternating Serial Reaction Time (ASRT) task,5,ASRT,301.80000000074506,,70,,,serial-reaction-time,110,1138340,0.0-1072.0-0.0,1,,[],,"[[1,1,1,1]]","[0,1]",R,2,1,13,2314,1,2,f,f,301.80000000074506,222,X
112,1713944932664,24/04/2024 07:48:52,1713944932727,2,24/04/2024 09:48:52,143617,34,task-xrbt,,37232506,vhyg4,9856748,,complete,,,computer,Desktop or Laptop,Windows 10,Chrome 124.0.0.0,1920x1080,1920x1080,,,,Alternating Serial Reaction Time (ASRT) task,5,ASRT,457.59999999962747,,83,,,serial-reaction-time,111,1139330,0.0-1083.0-0.0,1,,[],,"[[1,1,1,1]]","[0,0]",R,2,1,14,2314,1,1,s,s,457.59999999962747,221,X
113,1713944933527,24/04/2024 07:48:53,1713944933593,2,24/04/2024 09:48:53,143617,34,task-xrbt,,37232506,vhyg4,9856748,,complete,,,computer,Desktop or Laptop,Windows 10,Chrome 124.0.0.0,1920x1080,1920x1080,,,,Alternating Serial Reaction Time (ASRT) task,5,ASRT,333.90000000037253,,74,,,serial-reaction-time,112,1140197,0.0-1094.0-0.0,1,,[],,"[[1,1,1,1]]","[0,2]",R,2,1,15,2314,1,3,j,j,333.90000000037253,213,X
114,1713944934401,24/04/2024 07:48:54,1713944934448,2,24/04/2024 09:48:54,143617,34,task-xrbt,,37232506,vhyg4,9856748,,complete,,,computer,Desktop or Laptop,Windows 10,Chrome 124.0.0.0,1920x1080,1920x1080,,,,Alternating Serial Reaction Time (ASRT) task,5,ASRT,323.6000000005588,,74,,,serial-reaction-time,113,1141052,0.0-1105.0-0.0,1,,[],,"[[1,1,1,1]]","[0,2]",R,2,1,16,2314,1,3,j,j,323.6000000005588,133,X
115,1713944935231,24/04/2024 07:48:55,1713944935292,2,24/04/2024 09:48:55,143617,34,task-xrbt,,37232506,vhyg4,9856748,,complete,,,computer,Desktop or Laptop,Windows 10,Chrome 124.0.0.0,1920x1080,1920x1080,,,,Alternating Serial Reaction Time (ASRT) task,5,ASRT,317.19999999925494,,74,,,serial-reaction-time,114,1141896,0.0-1116.0-0.0,1,,[],,"[[1,1,1,1]]","[0,2]",R,2,1,17,2314,1,3,j,j,317.19999999925494,333,X
116,1713944936055,24/04/2024 07:48:56,1713944936103,2,24/04/2024 09:48:56,143617,34,task-xrbt,,37232506,vhyg4,9856748,,complete,,,computer,Desktop or Laptop,Windows 10,Chrome 124.0.0.0,1920x1080,1920x1080,,,,Alternating Serial Reaction Time (ASRT) task,5,ASRT,283,,70,,,serial-reaction-time,115,1142707,0.0-1127.0-0.0,,,[],,"[[1,1,1,1]]","[0,0]",R,2,1,18,2314,1,1,s,f,283,331,X
117,1713944936587,24/04/2024 07:48:56,1713944936511,2,24/04/2024 09:48:56,143617,34,task-xrbt,,37232506,vhyg4,9856748,,complete,,,computer,Desktop or Laptop,Windows 10,Chrome 124.0.0.0,1920x1080,1920x1080,,,,Alternating Serial Reaction Time (ASRT) task,5,ASRT,380,,83,,,serial-reaction-time,116,1143115,0.0-1128.0-0.0,1,,[],,"[[1,1,1,1]]","[0,0]",R,2,0,18,2314,1,1,s,s,663,331,X
118,1713944937293,24/04/2024 07:48:57,1713944937339,2,24/04/2024 09:48:57,143617,34,task-xrbt,,37232506,vhyg4,9856748,,complete,,,computer,Desktop or Laptop,Windows 10,Chrome 124.0.0.0,1920x1080,1920x1080,,,,Alternating Serial Reaction Time (ASRT) task,5,ASRT,299.59999999962747,,83,,,serial-reaction-time,117,1143943,0.0-1138.0-0.0,1,,[],,"[[1,1,1,1]]","[0,0]",R,2,1,19,2314,1,1,s,s,299.59999999962747,311,X
119,1713944938093,24/04/2024 07:48:58,1713944938142,2,24/04/2024 09:48:58,143617,34,task-xrbt,,37232506,vhyg4,9856748,,complete,,,computer,Desktop or Laptop,Windows 10,Chrome 124.0.0.0,1920x1080,1920x1080,,,,Alternating Serial Reaction Time (ASRT) task,5,ASRT,268.29999999981374,,74,,,serial-reaction-time,118,1144746,0.0-1149.0-0.0,1,,[],,"[[1,1,1,1]]","[0,2]",R,2,1,20,2314,1,3,j,j,268.29999999981374,113,X
120,1713944939070,24/04/2024 07:48:59,1713944939119,2,24/04/2024 09:48:59,143617,34,task-xrbt,,37232506,vhyg4,9856748,,complete,,,computer,Desktop or Laptop,Windows 10,Chrome 124.0.0.0,1920x1080,1920x1080,,,,Alternating Serial Reaction Time (ASRT) task,5,ASRT,456.40000000037253,,74,,,serial-reaction-time,119,1145723,0.0-1160.0-0.0,,,[],,"[[1,1,1,1]]","[0,1]",R,2,1,21,2314,1,2,f,j,456.40000000037253,132,X
121,1713944939379,24/04/2024 07:48:59,1713944939438,2,24/04/2024 09:48:59,143617,34,task-xrbt,,37232506,vhyg4,9856748,,complete,,,computer,Desktop or Laptop,Windows 10,Chrome 124.0.0.0,1920x1080,1920x1080,,,,Alternating Serial Reaction Time (ASRT) task,5,ASRT,292.20000000018626,,83,,,serial-reaction-time,120,1146041,0.0-1161.0-0.0,,,[],,"[[1,1,1,1]]","[0,1]",R,2,0,21,2314,1,2,f,s,748.6000000005588,132,X
122,1713944939587,24/04/2024 07:48:59,1713944939641,2,24/04/2024 09:48:59,143617,34,task-xrbt,,37232506,vhyg4,9856748,,complete,,,computer,Desktop or Laptop,Windows 10,Chrome 124.0.0.0,1920x1080,1920x1080,,,,Alternating Serial Reaction Time (ASRT) task,5,ASRT,172.40000000037253,,70,,,serial-reaction-time,121,1146244,0.0-1162.0-0.0,1,,[],,"[[1,1,1,1]]","[0,1]",R,2,0,21,2314,1,2,f,f,921.0000000009313,132,X
123,1713944940867,24/04/2024 07:49:00,1713944940928,2,24/04/2024 09:49:00,143617,34,task-xrbt,,37232506,vhyg4,9856748,,complete,,,computer,Desktop or Laptop,Windows 10,Chrome 124.0.0.0,1920x1080,1920x1080,,,,Alternating Serial Reaction Time (ASRT) task,5,ASRT,758.9000000003725,,76,,,serial-reaction-time,122,1147531,0.0-1171.0-0.0,1,,[],,"[[1,1,1,1]]","[0,3]",R,2,1,22,2314,1,4,l,l,758.9000000003725,324,X
124,1713944941683,24/04/2024 07:49:01,1713944941722,2,24/04/2024 09:49:01,143617,34,task-xrbt,,37232506,vhyg4,9856748,,complete,,,computer,Desktop or Laptop,Windows 10,Chrome 124.0.0.0,1920x1080,1920x1080,,,,Alternating Serial Reaction Time (ASRT) task,5,ASRT,275.59999999962747,,70,,,serial-reaction-time,123,1148326,0.0-1182.0-0.0,,,[],,"[[1,1,1,1]]","[0,0]",R,2,1,23,2314,1,1,s,f,275.59999999962747,241,X
125,1713944941979,24/04/2024 07:49:01,1713944942045,2,24/04/2024 09:49:02,143617,34,task-xrbt,,37232506,vhyg4,9856748,,complete,,,computer,Desktop or Laptop,Windows 10,Chrome 124.0.0.0,1920x1080,1920x1080,,,,Alternating Serial Reaction Time (ASRT) task,5,ASRT,298.5,,83,,,serial-reaction-time,124,1148649,0.0-1183.0-0.0,1,,[],,"[[1,1,1,1]]","[0,0]",R,2,0,23,2314,1,1,s,s,574.0999999996275,241,X
126,1713944942752,24/04/2024 07:49:02,1713944942816,2,24/04/2024 09:49:02,143617,34,task-xrbt,,37232506,vhyg4,9856748,,complete,,,computer,Desktop or Laptop,Windows 10,Chrome 124.0.0.0,1920x1080,1920x1080,,,,Alternating Serial Reaction Time (ASRT) task,5,ASRT,239.20000000018626,,74,,,serial-reaction-time,125,1149420,0.0-1193.0-0.0,1,,[],,"[[1,1,1,1]]","[0,2]",R,2,1,24,2314,1,3,j,j,239.20000000018626,413,X
127,1713944943857,24/04/2024 07:49:03,1713944943656,2,24/04/2024 09:49:03,143617,34,task-xrbt,,37232506,vhyg4,9856748,,complete,,,computer,Desktop or Laptop,Windows 10,Chrome 124.0.0.0,1920x1080,1920x1080,,,,Alternating Serial Reaction Time (ASRT) task,5,ASRT,307,,70,,,serial-reaction-time,126,1150259,0.0-1204.0-0.0,,,[],,"[[1,1,1,1]]","[0,0]",R,2,1,25,2314,1,1,s,f,307,131,X
128,1713944943954,24/04/2024 07:49:03,1713944943791,2,24/04/2024 09:49:03,143617,34,task-xrbt,,37232506,vhyg4,9856748,,complete,,,computer,Desktop or Laptop,Windows 10,Chrome 124.0.0.0,1920x1080,1920x1080,,,,Alternating Serial Reaction Time (ASRT) task,5,ASRT,105.69999999925494,,83,,,serial-reaction-time,127,1150394,0.0-1205.0-0.0,1,,[],,"[[1,1,1,1]]","[0,0]",R,2,0,25,2314,1,1,s,s,412.69999999925494,131,X
129,1713944944630,24/04/2024 07:49:04,1713944944690,2,24/04/2024 09:49:04,143617,34,task-xrbt,,37232506,vhyg4,9856748,,complete,,,computer,Desktop or Laptop,Windows 10,Chrome 124.0.0.0,1920x1080,1920x1080,,,,Alternating Serial Reaction Time (ASRT) task,5,ASRT,377.20000000018626,,74,,,serial-reaction-time,128,1151294,0.0-1215.0-0.0,1,,[],,"[[1,1,1,1]]","[0,2]",R,2,1,26,2314,1,3,j,j,377.20000000018626,313,X
130,1713944945503,24/04/2024 07:49:05,1713944945558,2,24/04/2024 09:49:05,143617,34,task-xrbt,,37232506,vhyg4,9856748,,complete,,,computer,Desktop or Laptop,Windows 10,Chrome 124.0.0.0,1920x1080,1920x1080,,,,Alternating Serial Reaction Time (ASRT) task,5,ASRT,348,,83,,,serial-reaction-time,129,1152162,0.0-1226.0-0.0,,,[],,"[[1,1,1,1]]","[0,1]",R,2,1,27,2314,1,2,f,s,348,132,X
131,1713944945641,24/04/2024 07:49:05,1713944945703,2,24/04/2024 09:49:05,143617,34,task-xrbt,,37232506,vhyg4,9856748,,complete,,,computer,Desktop or Laptop,Windows 10,Chrome 124.0.0.0,1920x1080,1920x1080,,,,Alternating Serial Reaction Time (ASRT) task,5,ASRT,117.79999999981374,,70,,,serial-reaction-time,130,1152307,0.0-1227.0-0.0,1,,[],,"[[1,1,1,1]]","[0,1]",R,2,0,27,2314,1,2,f,f,465.79999999981374,132,X
132,1713944946461,24/04/2024 07:49:06,1713944946528,2,24/04/2024 09:49:06,143617,34,task-xrbt,,37232506,vhyg4,9856748,,complete,,,computer,Desktop or Laptop,Windows 10,Chrome 124.0.0.0,1920x1080,1920x1080,,,,Alternating Serial Reaction Time (ASRT) task,5,ASRT,295.29999999981374,,74,,,serial-reaction-time,131,1153131,0.0-1237.0-0.0,1,,[],,"[[1,1,1,1]]","[0,2]",R,2,1,28,2314,1,3,j,j,295.29999999981374,323,X
133,1713944947315,24/04/2024 07:49:07,1713944947382,2,24/04/2024 09:49:07,143617,34,task-xrbt,,37232506,vhyg4,9856748,,complete,,,computer,Desktop or Laptop,Windows 10,Chrome 124.0.0.0,1920x1080,1920x1080,,,,Alternating Serial Reaction Time (ASRT) task,5,ASRT,315.59999999962747,,74,,,serial-reaction-time,132,1153986,0.0-1248.0-0.0,1,,[],,"[[1,1,1,1]]","[0,2]",R,2,1,29,2314,1,3,j,j,315.59999999962747,233,X
134,1713944948161,24/04/2024 07:49:08,1713944948222,2,24/04/2024 09:49:08,143617,34,task-xrbt,,37232506,vhyg4,9856748,,complete,,,computer,Desktop or Laptop,Windows 10,Chrome 124.0.0.0,1920x1080,1920x1080,,,,Alternating Serial Reaction Time (ASRT) task,5,ASRT,312.6000000005588,,74,,,serial-reaction-time,133,1154826,0.0-1259.0-0.0,1,,[],,"[[1,1,1,1]]","[0,2]",R,2,1,30,2314,1,3,j,j,312.6000000005588,333,X
135,1713944948989,24/04/2024 07:49:08,1713944949057,2,24/04/2024 09:49:09,143617,34,task-xrbt,,37232506,vhyg4,9856748,,complete,,,computer,Desktop or Laptop,Windows 10,Chrome 124.0.0.0,1920x1080,1920x1080,,,,Alternating Serial Reaction Time (ASRT) task,5,ASRT,305.5,,76,,,serial-reaction-time,134,1155660,0.0-1270.0-0.0,1,,[],,"[[1,1,1,1]]","[0,3]",R,2,1,31,2314,1,4,l,l,305.5,334,X
136,1713944949825,24/04/2024 07:49:09,1713944949877,2,24/04/2024 09:49:09,143617,34,task-xrbt,,37232506,vhyg4,9856748,,complete,,,computer,Desktop or Laptop,Windows 10,Chrome 124.0.0.0,1920x1080,1920x1080,,,,Alternating Serial Reaction Time (ASRT) task,5,ASRT,293.1000000005588,,74,,,serial-reaction-time,135,1156480,0.0-1281.0-0.0,,,[],,"[[1,1,1,1]]","[0,0]",R,2,1,32,2314,1,1,s,j,293.1000000005588,341,X
137,1713944949958,24/04/2024 07:49:09,1713944950022,2,24/04/2024 09:49:10,143617,34,task-xrbt,,37232506,vhyg4,9856748,,complete,,,computer,Desktop or Laptop,Windows 10,Chrome 124.0.0.0,1920x1080,1920x1080,,,,Alternating Serial Reaction Time (ASRT) task,5,ASRT,119.6000000005588,,83,,,serial-reaction-time,136,1156626,0.0-1282.0-0.0,1,,[],,"[[1,1,1,1]]","[0,0]",R,2,0,32,2314,1,1,s,s,412.7000000011176,341,X
138,1713944950883,24/04/2024 07:49:10,1713944950943,2,24/04/2024 09:49:10,143617,34,task-xrbt,,37232506,vhyg4,9856748,,complete,,,computer,Desktop or Laptop,Windows 10,Chrome 124.0.0.0,1920x1080,1920x1080,,,,Alternating Serial Reaction Time (ASRT) task,5,ASRT,390.8999999994412,,74,,,serial-reaction-time,137,1157547,0.0-1292.0-0.0,1,,[],,"[[1,1,1,1]]","[0,2]",R,2,1,33,2314,1,3,j,j,390.8999999994412,413,X
139,1713944951803,24/04/2024 07:49:11,1713944951851,2,24/04/2024 09:49:11,143617,34,task-xrbt,,37232506,vhyg4,9856748,,complete,,,computer,Desktop or Laptop,Windows 10,Chrome 124.0.0.0,1920x1080,1920x1080,,,,Alternating Serial Reaction Time (ASRT) task,5,ASRT,361.5,,74,,,serial-reaction-time,138,1158455,0.0-1303.0-0.0,1,,[],,"[[1,1,1,1]]","[0,2]",R,2,1,34,2314,1,3,j,j,361.5,133,X
140,1713944952604,24/04/2024 07:49:12,1713944952662,2,24/04/2024 09:49:12,143617,34,task-xrbt,,37232506,vhyg4,9856748,,complete,,,computer,Desktop or Laptop,Windows 10,Chrome 124.0.0.0,1920x1080,1920x1080,,,,Alternating Serial Reaction Time (ASRT) task,5,ASRT,282.5,,74,,,serial-reaction-time,139,1159266,0.0-1314.0-0.0,1,,[],,"[[1,1,1,1]]","[0,2]",R,2,1,35,2314,1,3,j,j,282.5,333,X
141,1713944953432,24/04/2024 07:49:13,1713944953503,2,24/04/2024 09:49:13,143617,34,task-xrbt,,37232506,vhyg4,9856748,,complete,,,computer,Desktop or Laptop,Windows 10,Chrome 124.0.0.0,1920x1080,1920x1080,,,,Alternating Serial Reaction Time (ASRT) task,5,ASRT,313.90000000037253,,83,,,serial-reaction-time,140,1160107,0.0-1325.0-0.0,1,,[],,"[[1,1,1,1]]","[0,0]",R,2,1,36,2314,1,1,s,s,313.90000000037253,331,X
142,1713944954409,24/04/2024 07:49:14,1713944954462,2,24/04/2024 09:49:14,143617,34,task-xrbt,,37232506,vhyg4,9856748,,complete,,,computer,Desktop or Laptop,Windows 10,Chrome 124.0.0.0,1920x1080,1920x1080,,,,Alternating Serial Reaction Time (ASRT) task,5,ASRT,426.29999999981374,,74,,,serial-reaction-time,141,1161066,0.0-1336.0-0.0,,,[],,"[[1,1,1,1]]","[0,1]",R,2,1,37,2314,1,2,f,j,426.29999999981374,312,X
143,1713944954667,24/04/2024 07:49:14,1713944954728,2,24/04/2024 09:49:14,143617,34,task-xrbt,,37232506,vhyg4,9856748,,complete,,,computer,Desktop or Laptop,Windows 10,Chrome 124.0.0.0,1920x1080,1920x1080,,,,Alternating Serial Reaction Time (ASRT) task,5,ASRT,232.3999999994412,,70,,,serial-reaction-time,142,1161332,0.0-1337.0-0.0,1,,[],,"[[1,1,1,1]]","[0,1]",R,2,0,37,2314,1,2,f,f,658.6999999992549,312,X
144,1713944955524,24/04/2024 07:49:15,1713944955586,2,24/04/2024 09:49:15,143617,34,task-xrbt,,37232506,vhyg4,9856748,,complete,,,computer,Desktop or Laptop,Windows 10,Chrome 124.0.0.0,1920x1080,1920x1080,,,,Alternating Serial Reaction Time (ASRT) task,5,ASRT,339.90000000037253,,76,,,serial-reaction-time,143,1162190,0.0-1347.0-0.0,1,,[],,"[[1,1,1,1]]","[0,3]",R,2,1,38,2314,1,4,l,l,339.90000000037253,124,X
145,1713944956462,24/04/2024 07:49:16,1713944956518,2,24/04/2024 09:49:16,143617,34,task-xrbt,,37232506,vhyg4,9856748,,complete,,,computer,Desktop or Laptop,Windows 10,Chrome 124.0.0.0,1920x1080,1920x1080,,,,Alternating Serial Reaction Time (ASRT) task,5,ASRT,412.5,,70,,,serial-reaction-time,144,1163121,0.0-1358.0-0.0,1,,[],,"[[1,1,1,1]]","[0,1]",R,2,1,39,2314,1,2,f,f,412.5,242,X
146,1713944957580,24/04/2024 07:49:17,1713944957623,2,24/04/2024 09:49:17,143617,34,task-xrbt,,37232506,vhyg4,9856748,,complete,,,computer,Desktop or Laptop,Windows 10,Chrome 124.0.0.0,1920x1080,1920x1080,,,,Alternating Serial Reaction Time (ASRT) task,5,ASRT,577.4000000003725,,76,,,serial-reaction-time,145,1164226,0.0-1369.0-0.0,1,,[],,"[[1,1,1,1]]","[0,3]",R,2,1,40,2314,1,4,l,l,577.4000000003725,424,X
147,1713944958442,24/04/2024 07:49:18,1713944958512,2,24/04/2024 09:49:18,143617,34,task-xrbt,,37232506,vhyg4,9856748,,complete,,,computer,Desktop or Laptop,Windows 10,Chrome 124.0.0.0,1920x1080,1920x1080,,,,Alternating Serial Reaction Time (ASRT) task,5,ASRT,358,,83,,,serial-reaction-time,146,1165115,0.0-1380.0-0.0,1,,[],,"[[1,1,1,1]]","[0,0]",R,2,1,41,2314,1,1,s,s,358,241,X
148,1713944959322,24/04/2024 07:49:19,1713944959390,2,24/04/2024 09:49:19,143617,34,task-xrbt,,37232506,vhyg4,9856748,,complete,,,computer,Desktop or Laptop,Windows 10,Chrome 124.0.0.0,1920x1080,1920x1080,,,,Alternating Serial Reaction Time (ASRT) task,5,ASRT,352.79999999981374,,76,,,serial-reaction-time,147,1165994,0.0-1391.0-0.0,1,,[],,"[[1,1,1,1]]","[0,3]",R,2,1,42,2314,1,4,l,l,352.79999999981374,414,X
149,1713944960218,24/04/2024 07:49:20,1713944960271,2,24/04/2024 09:49:20,143617,34,task-xrbt,,37232506,vhyg4,9856748,,complete,,,computer,Desktop or Laptop,Windows 10,Chrome 124.0.0.0,1920x1080,1920x1080,,,,Alternating Serial Reaction Time (ASRT) task,5,ASRT,353,,83,,,serial-reaction-time,148,1166874,0.0-1402.0-0.0,1,,[],,"[[1,1,1,1]]","[0,0]",R,2,1,43,2314,1,1,s,s,353,141,X
150,1713944961093,24/04/2024 07:49:21,1713944961156,2,24/04/2024 09:49:21,143617,34,task-xrbt,,37232506,vhyg4,9856748,,complete,,,computer,Desktop or Laptop,Windows 10,Chrome 124.0.0.0,1920x1080,1920x1080,,,,Alternating Serial Reaction Time (ASRT) task,5,ASRT,369.90000000037253,,83,,,serial-reaction-time,149,1167760,0.0-1413.0-0.0,1,,[],,"[[1,1,1,1]]","[0,0]",R,2,1,44,2314,1,1,s,s,369.90000000037253,411,X
151,1713944961829,24/04/2024 07:49:21,1713944961888,2,24/04/2024 09:49:21,143617,34,task-xrbt,,37232506,vhyg4,9856748,,complete,,,computer,Desktop or Laptop,Windows 10,Chrome 124.0.0.0,1920x1080,1920x1080,,,,Alternating Serial Reaction Time (ASRT) task,5,ASRT,212.20000000018626,,83,,,serial-reaction-time,150,1168492,0.0-1424.0-0.0,,,[],,"[[1,1,1,1]]","[0,2]",R,2,1,45,2314,1,3,j,s,212.20000000018626,113,X
152,1713944962055,24/04/2024 07:49:22,1713944962111,2,24/04/2024 09:49:22,143617,34,task-xrbt,,37232506,vhyg4,9856748,,complete,,,computer,Desktop or Laptop,Windows 10,Chrome 124.0.0.0,1920x1080,1920x1080,,,,Alternating Serial Reaction Time (ASRT) task,5,ASRT,195.6000000005588,,74,,,serial-reaction-time,151,1168715,0.0-1425.0-0.0,1,,[],,"[[1,1,1,1]]","[0,2]",R,2,0,45,2314,1,3,j,j,407.80000000074506,113,X
153,1713944962966,24/04/2024 07:49:22,1713944963032,2,24/04/2024 09:49:23,143617,34,task-xrbt,,37232506,vhyg4,9856748,,complete,,,computer,Desktop or Laptop,Windows 10,Chrome 124.0.0.0,1920x1080,1920x1080,,,,Alternating Serial Reaction Time (ASRT) task,5,ASRT,392.29999999981374,,70,,,serial-reaction-time,152,1169636,0.0-1435.0-0.0,1,,[],,"[[1,1,1,1]]","[0,1]",R,2,1,46,2314,1,2,f,f,392.29999999981374,132,X
154,1713944963959,24/04/2024 07:49:23,1713944964007,2,24/04/2024 09:49:24,143617,34,task-xrbt,,37232506,vhyg4,9856748,,complete,,,computer,Desktop or Laptop,Windows 10,Chrome 124.0.0.0,1920x1080,1920x1080,,,,Alternating Serial Reaction Time (ASRT) task,5,ASRT,445.20000000018626,,83,,,serial-reaction-time,153,1170610,0.0-1446.0-0.0,1,,[],,"[[1,1,1,1]]","[0,0]",R,2,1,47,2314,1,1,s,s,445.20000000018626,321,X
155,1713944964860,24/04/2024 07:49:24,1713944964911,2,24/04/2024 09:49:24,143617,34,task-xrbt,,37232506,vhyg4,9856748,,complete,,,computer,Desktop or Laptop,Windows 10,Chrome 124.0.0.0,1920x1080,1920x1080,,,,Alternating Serial Reaction Time (ASRT) task,5,ASRT,373.59999999962747,,74,,,serial-reaction-time,154,1171515,0.0-1457.0-0.0,,,[],,"[[1,1,1,1]]","[0,1]",R,2,1,48,2314,1,2,f,j,373.59999999962747,212,X
156,1713944965174,24/04/2024 07:49:25,1713944965235,2,24/04/2024 09:49:25,143617,34,task-xrbt,,37232506,vhyg4,9856748,,complete,,,computer,Desktop or Laptop,Windows 10,Chrome 124.0.0.0,1920x1080,1920x1080,,,,Alternating Serial Reaction Time (ASRT) task,5,ASRT,299,,70,,,serial-reaction-time,155,1171839,0.0-1458.0-0.0,1,,[],,"[[1,1,1,1]]","[0,1]",R,2,0,48,2314,1,2,f,f,672.5999999996275,212,X
157,1713944966038,24/04/2024 07:49:26,1713944966096,2,24/04/2024 09:49:26,143617,34,task-xrbt,,37232506,vhyg4,9856748,,complete,,,computer,Desktop or Laptop,Windows 10,Chrome 124.0.0.0,1920x1080,1920x1080,,,,Alternating Serial Reaction Time (ASRT) task,5,ASRT,333,,83,,,serial-reaction-time,156,1172700,0.0-1468.0-0.0,1,,[],,"[[1,1,1,1]]","[0,0]",R,2,1,49,2314,1,1,s,s,333,121,X
158,1713944966887,24/04/2024 07:49:26,1713944966947,2,24/04/2024 09:49:26,143617,34,task-xrbt,,37232506,vhyg4,9856748,,complete,,,computer,Desktop or Laptop,Windows 10,Chrome 124.0.0.0,1920x1080,1920x1080,,,,Alternating Serial Reaction Time (ASRT) task,5,ASRT,323.79999999981374,,74,,,serial-reaction-time,157,1173551,0.0-1479.0-0.0,1,,[],,"[[1,1,1,1]]","[0,2]",R,2,1,50,2314,1,3,j,j,323.79999999981374,213,X
159,1713944967803,24/04/2024 07:49:27,1713944967854,2,24/04/2024 09:49:27,143617,34,task-xrbt,,37232506,vhyg4,9856748,,complete,,,computer,Desktop or Laptop,Windows 10,Chrome 124.0.0.0,1920x1080,1920x1080,,,,Alternating Serial Reaction Time (ASRT) task,5,ASRT,379.79999999981374,,70,,,serial-reaction-time,158,1174458,0.0-1490.0-0.0,1,,[],,"[[1,1,1,1]]","[0,1]",R,2,1,51,2314,1,2,f,f,379.79999999981374,132,X
160,1713944968610,24/04/2024 07:49:28,1713944968670,2,24/04/2024 09:49:28,143617,34,task-xrbt,,37232506,vhyg4,9856748,,complete,,,computer,Desktop or Laptop,Windows 10,Chrome 124.0.0.0,1920x1080,1920x1080,,,,Alternating Serial Reaction Time (ASRT) task,5,ASRT,278.90000000037253,,70,,,serial-reaction-time,159,1175273,0.0-1501.0-0.0,1,,[],,"[[1,1,1,1]]","[0,1]",R,2,1,52,2314,1,2,f,f,278.90000000037253,322,X
161,1713944969495,24/04/2024 07:49:29,1713944969550,2,24/04/2024 09:49:29,143617,34,task-xrbt,,37232506,vhyg4,9856748,,complete,,,computer,Desktop or Laptop,Windows 10,Chrome 124.0.0.0,1920x1080,1920x1080,,,,Alternating Serial Reaction Time (ASRT) task,5,ASRT,348.1000000005588,,76,,,serial-reaction-time,160,1176154,0.0-1512.0-0.0,1,,[],,"[[1,1,1,1]]","[0,3]",R,2,1,53,2314,1,4,l,l,348.1000000005588,224,X
162,1713944970361,24/04/2024 07:49:30,1713944970422,2,24/04/2024 09:49:30,143617,34,task-xrbt,,37232506,vhyg4,9856748,,complete,,,computer,Desktop or Laptop,Windows 10,Chrome 124.0.0.0,1920x1080,1920x1080,,,,Alternating Serial Reaction Time (ASRT) task,5,ASRT,345.20000000018626,,70,,,serial-reaction-time,161,1177026,0.0-1523.0-0.0,,,[],,"[[1,1,1,1]]","[0,2]",R,2,1,54,2314,1,3,j,f,345.20000000018626,243,X
163,1713944970671,24/04/2024 07:49:30,1713944970729,2,24/04/2024 09:49:30,143617,34,task-xrbt,,37232506,vhyg4,9856748,,complete,,,computer,Desktop or Laptop,Windows 10,Chrome 124.0.0.0,1920x1080,1920x1080,,,,Alternating Serial Reaction Time (ASRT) task,5,ASRT,279,,74,,,serial-reaction-time,162,1177332,0.0-1524.0-0.0,1,,[],,"[[1,1,1,1]]","[0,2]",R,2,0,54,2314,1,3,j,j,624.2000000001863,243,X
164,1713944971592,24/04/2024 07:49:31,1713944971653,2,24/04/2024 09:49:31,143617,34,task-xrbt,,37232506,vhyg4,9856748,,complete,,,computer,Desktop or Laptop,Windows 10,Chrome 124.0.0.0,1920x1080,1920x1080,,,,Alternating Serial Reaction Time (ASRT) task,5,ASRT,398,,70,,,serial-reaction-time,163,1178257,0.0-1534.0-0.0,1,,[],,"[[1,1,1,1]]","[0,1]",R,2,1,55,2314,1,2,f,f,398,432,X
165,1713944972581,24/04/2024 07:49:32,1713944972629,2,24/04/2024 09:49:32,143617,34,task-xrbt,,37232506,vhyg4,9856748,,complete,,,computer,Desktop or Laptop,Windows 10,Chrome 124.0.0.0,1920x1080,1920x1080,,,,Alternating Serial Reaction Time (ASRT) task,5,ASRT,442.5,,74,,,serial-reaction-time,164,1179232,0.0-1545.0-0.0,1,,[],,"[[1,1,1,1]]","[0,2]",R,2,1,56,2314,1,3,j,j,442.5,323,X
166,1713944973523,24/04/2024 07:49:33,1713944973579,2,24/04/2024 09:49:33,143617,34,task-xrbt,,37232506,vhyg4,9856748,,complete,,,computer,Desktop or Laptop,Windows 10,Chrome 124.0.0.0,1920x1080,1920x1080,,,,Alternating Serial Reaction Time (ASRT) task,5,ASRT,421.20000000018626,,70,,,serial-reaction-time,165,1180183,0.0-1556.0-0.0,,,[],,"[[1,1,1,1]]","[0,0]",R,2,1,57,2314,1,1,s,f,421.20000000018626,231,X
167,1713944973632,24/04/2024 07:49:33,1713944973683,2,24/04/2024 09:49:33,143617,34,task-xrbt,,37232506,vhyg4,9856748,,complete,,,computer,Desktop or Laptop,Windows 10,Chrome 124.0.0.0,1920x1080,1920x1080,,,,Alternating Serial Reaction Time (ASRT) task,5,ASRT,73.59999999962747,,83,,,serial-reaction-time,166,1180287,0.0-1557.0-0.0,1,,[],,"[[1,1,1,1]]","[0,0]",R,2,0,57,2314,1,1,s,s,494.79999999981374,231,X
168,1713944974493,24/04/2024 07:49:34,1713944974543,2,24/04/2024 09:49:34,143617,34,task-xrbt,,37232506,vhyg4,9856748,,complete,,,computer,Desktop or Laptop,Windows 10,Chrome 124.0.0.0,1920x1080,1920x1080,,,,Alternating Serial Reaction Time (ASRT) task,5,ASRT,333.09999999962747,,83,,,serial-reaction-time,167,1181147,0.0-1567.0-0.0,1,,[],,"[[1,1,1,1]]","[0,0]",R,2,1,58,2314,1,1,s,s,333.09999999962747,311,X
169,1713944975300,24/04/2024 07:49:35,1713944975365,2,24/04/2024 09:49:35,143617,34,task-xrbt,,37232506,vhyg4,9856748,,complete,,,computer,Desktop or Laptop,Windows 10,Chrome 124.0.0.0,1920x1080,1920x1080,,,,Alternating Serial Reaction Time (ASRT) task,5,ASRT,306,,83,,,serial-reaction-time,168,1181969,0.0-1578.0-0.0,1,,[],,"[[1,1,1,1]]","[0,0]",R,2,1,59,2314,1,1,s,s,306,111,X
170,1713944976042,24/04/2024 07:49:36,1713944976108,2,24/04/2024 09:49:36,143617,34,task-xrbt,,37232506,vhyg4,9856748,,complete,,,computer,Desktop or Laptop,Windows 10,Chrome 124.0.0.0,1920x1080,1920x1080,,,,Alternating Serial Reaction Time (ASRT) task,5,ASRT,232.29999999981374,,83,,,serial-reaction-time,169,1182711,0.0-1589.0-0.0,1,,[],,"[[1,1,1,1]]","[0,0]",R,2,1,60,2314,1,1,s,s,232.29999999981374,111,X
171,1713944976897,24/04/2024 07:49:36,1713944976955,2,24/04/2024 09:49:36,143617,34,task-xrbt,,37232506,vhyg4,9856748,,complete,,,computer,Desktop or Laptop,Windows 10,Chrome 124.0.0.0,1920x1080,1920x1080,,,,Alternating Serial Reaction Time (ASRT) task,5,ASRT,337.29999999981374,,74,,,serial-reaction-time,170,1183559,0.0-1600.0-0.0,,,[],,"[[1,1,1,1]]","[0,3]",R,2,1,61,2314,1,4,l,j,337.29999999981374,114,X
172,1713944977127,24/04/2024 07:49:37,1713944977188,2,24/04/2024 09:49:37,143617,34,task-xrbt,,37232506,vhyg4,9856748,,complete,,,computer,Desktop or Laptop,Windows 10,Chrome 124.0.0.0,1920x1080,1920x1080,,,,Alternating Serial Reaction Time (ASRT) task,5,ASRT,217.6000000005588,,76,,,serial-reaction-time,171,1183792,0.0-1601.0-0.0,1,,[],,"[[1,1,1,1]]","[0,3]",R,2,0,61,2314,1,4,l,l,554.9000000003725,114,X
173,1713944977964,24/04/2024 07:49:37,1713944978022,2,24/04/2024 09:49:38,143617,34,task-xrbt,,37232506,vhyg4,9856748,,complete,,,computer,Desktop or Laptop,Windows 10,Chrome 124.0.0.0,1920x1080,1920x1080,,,,Alternating Serial Reaction Time (ASRT) task,5,ASRT,319.8999999994412,,76,,,serial-reaction-time,172,1184626,0.0-1611.0-0.0,1,,[],,"[[1,1,1,1]]","[0,3]",R,2,1,62,2314,1,4,l,l,319.8999999994412,144,X
174,1713944978868,24/04/2024 07:49:38,1713944978937,2,24/04/2024 09:49:38,143617,34,task-xrbt,,37232506,vhyg4,9856748,,complete,,,computer,Desktop or Laptop,Windows 10,Chrome 124.0.0.0,1920x1080,1920x1080,,,,Alternating Serial Reaction Time (ASRT) task,5,ASRT,399.70000000018626,,70,,,serial-reaction-time,173,1185541,0.0-1622.0-0.0,1,,[],,"[[1,1,1,1]]","[0,1]",R,2,1,63,2314,1,2,f,f,399.70000000018626,442,X
175,1713944979794,24/04/2024 07:49:39,1713944979854,2,24/04/2024 09:49:39,143617,34,task-xrbt,,37232506,vhyg4,9856748,,complete,,,computer,Desktop or Laptop,Windows 10,Chrome 124.0.0.0,1920x1080,1920x1080,,,,Alternating Serial Reaction Time (ASRT) task,5,ASRT,405.40000000037253,,74,,,serial-reaction-time,174,1186458,0.0-1633.0-0.0,1,,[],,"[[1,1,1,1]]","[0,2]",R,2,1,64,2314,1,3,j,j,405.40000000037253,423,X
176,1713944981083,24/04/2024 07:49:41,1713944981146,2,24/04/2024 09:49:41,143617,34,task-xrbt,,37232506,vhyg4,9856748,,complete,,,computer,Desktop or Laptop,Windows 10,Chrome 124.0.0.0,1920x1080,1920x1080,,,,Alternating Serial Reaction Time (ASRT) task,5,ASRT,777.3000000007451,,70,,,serial-reaction-time,175,1187750,0.0-1644.0-0.0,,,[],,"[[1,1,1,1]]","[0,0]",R,2,1,65,2314,1,1,s,f,777.3000000007451,231,X
177,1713944981194,24/04/2024 07:49:41,1713944981256,2,24/04/2024 09:49:41,143617,34,task-xrbt,,37232506,vhyg4,9856748,,complete,,,computer,Desktop or Laptop,Windows 10,Chrome 124.0.0.0,1920x1080,1920x1080,,,,Alternating Serial Reaction Time (ASRT) task,5,ASRT,96.80000000074506,,83,,,serial-reaction-time,176,1187860,0.0-1645.0-0.0,1,,[],,"[[1,1,1,1]]","[0,0]",R,2,0,65,2314,1,1,s,s,874.1000000014901,231,X
178,1713944982107,24/04/2024 07:49:42,1713944982159,2,24/04/2024 09:49:42,143617,34,task-xrbt,,37232506,vhyg4,9856748,,complete,,,computer,Desktop or Laptop,Windows 10,Chrome 124.0.0.0,1920x1080,1920x1080,,,,Alternating Serial Reaction Time (ASRT) task,5,ASRT,365.1000000005588,,76,,,serial-reaction-time,177,1188763,0.0-1655.0-0.0,1,,[],,"[[1,1,1,1]]","[0,3]",R,2,1,66,2314,1,4,l,l,365.1000000005588,314,X
179,1713944982972,24/04/2024 07:49:42,1713944983039,2,24/04/2024 09:49:43,143617,34,task-xrbt,,37232506,vhyg4,9856748,,complete,,,computer,Desktop or Laptop,Windows 10,Chrome 124.0.0.0,1920x1080,1920x1080,,,,Alternating Serial Reaction Time (ASRT) task,5,ASRT,353,,74,,,serial-reaction-time,178,1189642,0.0-1666.0-0.0,1,,[],,"[[1,1,1,1]]","[0,2]",R,2,1,67,2314,1,3,j,j,353,143,X
180,1713944983834,24/04/2024 07:49:43,1713944983896,2,24/04/2024 09:49:43,143617,34,task-xrbt,,37232506,vhyg4,9856748,,complete,,,computer,Desktop or Laptop,Windows 10,Chrome 124.0.0.0,1920x1080,1920x1080,,,,Alternating Serial Reaction Time (ASRT) task,5,ASRT,327.09999999962747,,76,,,serial-reaction-time,179,1190499,0.0-1677.0-0.0,1,,[],,"[[1,1,1,1]]","[0,3]",R,2,1,68,2314,1,4,l,l,327.09999999962747,434,X
181,1713944984732,24/04/2024 07:49:44,1713944984797,2,24/04/2024 09:49:44,143617,34,task-xrbt,,37232506,vhyg4,9856748,,complete,,,computer,Desktop or Laptop,Windows 10,Chrome 124.0.0.0,1920x1080,1920x1080,,,,Alternating Serial Reaction Time (ASRT) task,5,ASRT,374.6000000005588,,70,,,serial-reaction-time,180,1191401,0.0-1688.0-0.0,,,[],,"[[1,1,1,1]]","[0,0]",R,2,1,69,2314,1,1,s,f,374.6000000005588,341,X
182,1713944984878,24/04/2024 07:49:44,1713944984935,2,24/04/2024 09:49:44,143617,34,task-xrbt,,37232506,vhyg4,9856748,,complete,,,computer,Desktop or Laptop,Windows 10,Chrome 124.0.0.0,1920x1080,1920x1080,,,,Alternating Serial Reaction Time (ASRT) task,5,ASRT,110.79999999981374,,83,,,serial-reaction-time,181,1191539,0.0-1689.0-0.0,1,,[],,"[[1,1,1,1]]","[0,0]",R,2,0,69,2314,1,1,s,s,485.40000000037253,341,X
183,1713944985724,24/04/2024 07:49:45,1713944985782,2,24/04/2024 09:49:45,143617,34,task-xrbt,,37232506,vhyg4,9856748,,complete,,,computer,Desktop or Laptop,Windows 10,Chrome 124.0.0.0,1920x1080,1920x1080,,,,Alternating Serial Reaction Time (ASRT) task,5,ASRT,326,,83,,,serial-reaction-time,182,1192386,0.0-1699.0-0.0,1,,[],,"[[1,1,1,1]]","[0,0]",R,2,1,70,2314,1,1,s,s,326,411,X
184,1713944986582,24/04/2024 07:49:46,1713944986648,2,24/04/2024 09:49:46,143617,34,task-xrbt,,37232506,vhyg4,9856748,,complete,,,computer,Desktop or Laptop,Windows 10,Chrome 124.0.0.0,1920x1080,1920x1080,,,,Alternating Serial Reaction Time (ASRT) task,5,ASRT,337.8999999994412,,76,,,serial-reaction-time,183,1193251,0.0-1710.0-0.0,1,,[],,"[[1,1,1,1]]","[0,3]",R,2,1,71,2314,1,4,l,l,337.8999999994412,114,X
185,1713944987522,24/04/2024 07:49:47,1713944987583,2,24/04/2024 09:49:47,143617,34,task-xrbt,,37232506,vhyg4,9856748,,complete,,,computer,Desktop or Laptop,Windows 10,Chrome 124.0.0.0,1920x1080,1920x1080,,,,Alternating Serial Reaction Time (ASRT) task,5,ASRT,398.6000000005588,,74,,,serial-reaction-time,184,1194186,0.0-1721.0-0.0,1,,[],,"[[1,1,1,1]]","[0,2]",R,2,1,72,2314,1,3,j,j,398.6000000005588,143,X
186,1713944988494,24/04/2024 07:49:48,1713944988543,2,24/04/2024 09:49:48,143617,34,task-xrbt,,37232506,vhyg4,9856748,,complete,,,computer,Desktop or Laptop,Windows 10,Chrome 124.0.0.0,1920x1080,1920x1080,,,,Alternating Serial Reaction Time (ASRT) task,5,ASRT,429.70000000018626,,70,,,serial-reaction-time,185,1195147,0.0-1732.0-0.0,1,,[],,"[[1,1,1,1]]","[0,1]",R,2,1,73,2314,1,2,f,f,429.70000000018626,432,X
187,1713944989575,24/04/2024 07:49:49,1713944989616,2,24/04/2024 09:49:49,143617,34,task-xrbt,,37232506,vhyg4,9856748,,complete,,,computer,Desktop or Laptop,Windows 10,Chrome 124.0.0.0,1920x1080,1920x1080,,,,Alternating Serial Reaction Time (ASRT) task,5,ASRT,541.7000000001863,,74,,,serial-reaction-time,186,1196219,0.0-1743.0-0.0,1,,[],,"[[1,1,1,1]]","[0,2]",R,2,1,74,2314,1,3,j,j,541.7000000001863,323,X
188,1713944990395,24/04/2024 07:49:50,1713944990448,2,24/04/2024 09:49:50,143617,34,task-xrbt,,37232506,vhyg4,9856748,,complete,,,computer,Desktop or Laptop,Windows 10,Chrome 124.0.0.0,1920x1080,1920x1080,,,,Alternating Serial Reaction Time (ASRT) task,5,ASRT,301.20000000018626,,83,,,serial-reaction-time,187,1197051,0.0-1754.0-0.0,1,,[],,"[[1,1,1,1]]","[0,0]",R,2,1,75,2314,1,1,s,s,301.20000000018626,231,X
189,1713944991325,24/04/2024 07:49:51,1713944991391,2,24/04/2024 09:49:51,143617,34,task-xrbt,,37232506,vhyg4,9856748,,complete,,,computer,Desktop or Laptop,Windows 10,Chrome 124.0.0.0,1920x1080,1920x1080,,,,Alternating Serial Reaction Time (ASRT) task,5,ASRT,413.79999999981374,,74,,,serial-reaction-time,188,1197995,0.0-1765.0-0.0,1,,[],,"[[1,1,1,1]]","[0,2]",R,2,1,76,2314,1,3,j,j,413.79999999981374,313,X
190,1713944992254,24/04/2024 07:49:52,1713944992324,2,24/04/2024 09:49:52,143617,34,task-xrbt,,37232506,vhyg4,9856748,,complete,,,computer,Desktop or Laptop,Windows 10,Chrome 124.0.0.0,1920x1080,1920x1080,,,,Alternating Serial Reaction Time (ASRT) task,5,ASRT,399,,83,,,serial-reaction-time,189,1198928,0.0-1776.0-0.0,1,,[],,"[[1,1,1,1]]","[0,0]",R,2,1,77,2314,1,1,s,s,399,131,X
191,1713944993147,24/04/2024 07:49:53,1713944993209,2,24/04/2024 09:49:53,143617,34,task-xrbt,,37232506,vhyg4,9856748,,complete,,,computer,Desktop or Laptop,Windows 10,Chrome 124.0.0.0,1920x1080,1920x1080,,,,Alternating Serial Reaction Time (ASRT) task,5,ASRT,355.90000000037253,,74,,,serial-reaction-time,190,1199812,0.0-1787.0-0.0,1,,[],,"[[1,1,1,1]]","[0,2]",R,2,1,78,2314,1,3,j,j,355.90000000037253,313,X
192,1713944994086,24/04/2024 07:49:54,1713944994151,2,24/04/2024 09:49:54,143617,34,task-xrbt,,37232506,vhyg4,9856748,,complete,,,computer,Desktop or Laptop,Windows 10,Chrome 124.0.0.0,1920x1080,1920x1080,,,,Alternating Serial Reaction Time (ASRT) task,5,ASRT,413.5,,74,,,serial-reaction-time,191,1200755,0.0-1798.0-0.0,1,,[],,"[[1,1,1,1]]","[0,2]",R,2,1,79,2314,1,3,j,j,413.5,133,X
193,1713944994943,24/04/2024 07:49:54,1713944995008,2,24/04/2024 09:49:55,143617,34,task-xrbt,,37232506,vhyg4,9856748,,complete,,,computer,Desktop or Laptop,Windows 10,Chrome 124.0.0.0,1920x1080,1920x1080,,,,Alternating Serial Reaction Time (ASRT) task,5,ASRT,327.8999999994412,,83,,,serial-reaction-time,192,1201612,0.0-1809.0-0.0,1,,[],,"[[1,1,1,1]]","[0,0]",R,2,1,80,2314,1,1,s,s,327.8999999994412,331,X
194,1713944995795,24/04/2024 07:49:55,1713944995863,2,24/04/2024 09:49:55,143617,34,task-xrbt,,37232506,vhyg4,9856748,,complete,,,computer,Desktop or Laptop,Windows 10,Chrome 124.0.0.0,1920x1080,1920x1080,,,,Alternating Serial Reaction Time (ASRT) task,5,ASRT,315.6000000005588,,83,,,serial-reaction-time,193,1202466,0.0-1820.0-0.0,1,,[],,"[[1,1,1,1]]","[0,0]",R,2,1,81,2314,1,1,s,s,315.6000000005588,311,X
195,1713944996630,24/04/2024 07:49:56,1713944996681,2,24/04/2024 09:49:56,143617,34,task-xrbt,,37232506,vhyg4,9856748,,complete,,,computer,Desktop or Laptop,Windows 10,Chrome 124.0.0.0,1920x1080,1920x1080,,,,Alternating Serial Reaction Time (ASRT) task,5,ASRT,288.70000000018626,,83,,,serial-reaction-time,194,1203285,0.0-1831.0-0.0,1,,[],,"[[1,1,1,1]]","[0,0]",R,2,1,82,2314,1,1,s,s,288.70000000018626,111,X
196,1713944997395,24/04/2024 07:49:57,1713944997465,2,24/04/2024 09:49:57,143617,34,task-xrbt,,37232506,vhyg4,9856748,,complete,,,computer,Desktop or Laptop,Windows 10,Chrome 124.0.0.0,1920x1080,1920x1080,,,,Alternating Serial Reaction Time (ASRT) task,5,ASRT,265.20000000018626,,83,,,serial-reaction-time,195,1204069,0.0-1842.0-0.0,1,,[],,"[[1,1,1,1]]","[0,0]",R,2,1,83,2314,1,1,s,s,265.20000000018626,111,X
197,1713944998193,24/04/2024 07:49:58,1713944998238,2,24/04/2024 09:49:58,143617,34,task-xrbt,,37232506,vhyg4,9856748,,complete,,,computer,Desktop or Laptop,Windows 10,Chrome 124.0.0.0,1920x1080,1920x1080,,,,Alternating Serial Reaction Time (ASRT) task,5,ASRT,246.79999999981374,,83,,,serial-reaction-time,196,1204841,0.0-1853.0-0.0,,,[],,"[[1,1,1,1]]","[0,1]",R,2,1,84,2314,1,2,f,s,246.79999999981374,112,X
198,1713944998317,24/04/2024 07:49:58,1713944998388,2,24/04/2024 09:49:58,143617,34,task-xrbt,,37232506,vhyg4,9856748,,complete,,,computer,Desktop or Laptop,Windows 10,Chrome 124.0.0.0,1920x1080,1920x1080,,,,Alternating Serial Reaction Time (ASRT) task,5,ASRT,126.20000000018626,,74,,,serial-reaction-time,197,1204992,0.0-1854.0-0.0,,,[],,"[[1,1,1,1]]","[0,1]",R,2,0,84,2314,1,2,f,j,373,112,X
199,1713944998405,24/04/2024 07:49:58,1713944998445,2,24/04/2024 09:49:58,143617,34,task-xrbt,,37232506,vhyg4,9856748,,complete,,,computer,Desktop or Laptop,Windows 10,Chrome 124.0.0.0,1920x1080,1920x1080,,,,Alternating Serial Reaction Time (ASRT) task,5,ASRT,39.299999999813735,,70,,,serial-reaction-time,198,1205049,0.0-1855.0-0.0,1,,[],,"[[1,1,1,1]]","[0,1]",R,2,0,84,2314,1,2,f,f,412.29999999981374,112,X
200,1713944999218,24/04/2024 07:49:59,1713944999275,2,24/04/2024 09:49:59,143617,34,task-xrbt,,37232506,vhyg4,9856748,,complete,,,computer,Desktop or Laptop,Windows 10,Chrome 124.0.0.0,1920x1080,1920x1080,,,,Alternating Serial Reaction Time (ASRT) task,5,ASRT,313.70000000018626,,70,,,serial-reaction-time,199,1205879,0.0-1864.0-0.0,1,,[],,"[[1,1,1,1]]","[0,1]",R,2,1,85,2314,1,2,f,f,313.70000000018626,122,X
201,1713945004255,24/04/2024 07:50:04,1713945004310,2,24/04/2024 09:50:04,143617,34,task-xrbt,,37232506,vhyg4,9856748,,complete,,,computer,Desktop or Laptop,Windows 10,Chrome 124.0.0.0,1920x1080,1920x1080,,,,Alternating Serial Reaction Time (ASRT) task,5,ASRT,,<h2>End of block 2</h2><br><p>Your accuracy: 81%</p><p>Your average response time: 362 ms</p><br><p class='message'><strong>Please try to be more accurate.</strong></p>,,,,html-keyboard-response,200,1210914,0.0-1875.0,,,[],,,,,,,,,,,,,,,
202,1713945083445,24/04/2024 07:51:23,1713945083512,2,24/04/2024 09:51:23,143617,34,task-xrbt,,37232506,vhyg4,9856748,,complete,,,computer,Desktop or Laptop,Windows 10,Chrome 124.0.0.0,1920x1080,1920x1080,,,,Alternating Serial Reaction Time (ASRT) task,5,ASRT,79163.90000000037,"<h2>The real task begins now.</h2>
        <p>If you are ready, press <strong>any</strong> key to start the task!</p>",83,,,html-keyboard-response,201,1290116,0.0-1876.0,,,[],,,,,,,,,,,,,,,
203,1713945084065,24/04/2024 07:51:24,1713945084118,2,24/04/2024 09:51:24,143617,34,task-xrbt,,37232506,vhyg4,9856748,,complete,,,computer,Desktop or Laptop,Windows 10,Chrome 124.0.0.0,1920x1080,1920x1080,,,,Alternating Serial Reaction Time (ASRT) task,5,ASRT,565.4000000003725,,74,,,serial-reaction-time,202,1290722,0.0-1877.0-0.0,1,,[],,"[[1,1,1,1]]","[0,2]",R,1,1,1,2314,0,3,j,j,565.4000000003725,3,X
204,1713945084897,24/04/2024 07:51:24,1713945084956,2,24/04/2024 09:51:24,143617,34,task-xrbt,,37232506,vhyg4,9856748,,complete,,,computer,Desktop or Laptop,Windows 10,Chrome 124.0.0.0,1920x1080,1920x1080,,,,Alternating Serial Reaction Time (ASRT) task,5,ASRT,323.8999999994412,,70,,,serial-reaction-time,203,1291560,0.0-1888.0-0.0,1,,[],,"[[1,1,1,1]]","[0,1]",P,1,1,2,2314,0,2,f,f,323.8999999994412,32,X
205,1713945085758,24/04/2024 07:51:25,1713945085802,2,24/04/2024 09:51:25,143617,34,task-xrbt,,37232506,vhyg4,9856748,,complete,,,computer,Desktop or Laptop,Windows 10,Chrome 124.0.0.0,1920x1080,1920x1080,,,,Alternating Serial Reaction Time (ASRT) task,5,ASRT,317.09999999962747,,74,,,serial-reaction-time,204,1292405,0.0-1899.0-0.0,1,,[],,"[[1,1,1,1]]","[0,2]",R,1,1,3,2314,0,3,j,j,317.09999999962747,323,T
206,1713945086607,24/04/2024 07:51:26,1713945086678,2,24/04/2024 09:51:26,143617,34,task-xrbt,,37232506,vhyg4,9856748,,complete,,,computer,Desktop or Laptop,Windows 10,Chrome 124.0.0.0,1920x1080,1920x1080,,,,Alternating Serial Reaction Time (ASRT) task,5,ASRT,347.59999999962747,,74,,,serial-reaction-time,205,1293281,0.0-1910.0-0.0,1,,[],,"[[1,1,1,1]]","[0,2]",P,1,1,4,2314,0,3,j,j,347.59999999962747,233,H
207,1713945087464,24/04/2024 07:51:27,1713945087517,2,24/04/2024 09:51:27,143617,34,task-xrbt,,37232506,vhyg4,9856748,,complete,,,computer,Desktop or Laptop,Windows 10,Chrome 124.0.0.0,1920x1080,1920x1080,,,,Alternating Serial Reaction Time (ASRT) task,5,ASRT,314.09999999962747,,74,,,serial-reaction-time,206,1294121,0.0-1921.0-0.0,1,,[],,"[[1,1,1,1]]","[0,2]",R,1,1,5,2314,0,3,j,j,314.09999999962747,333,R
208,1713945088386,24/04/2024 07:51:28,1713945088439,2,24/04/2024 09:51:28,143617,34,task-xrbt,,37232506,vhyg4,9856748,,complete,,,computer,Desktop or Laptop,Windows 10,Chrome 124.0.0.0,1920x1080,1920x1080,,,,Alternating Serial Reaction Time (ASRT) task,5,ASRT,394.8999999994412,,70,,,serial-reaction-time,207,1295042,0.0-1932.0-0.0,,,[],,"[[1,1,1,1]]","[0,0]",P,1,1,6,2314,0,1,s,f,394.8999999994412,331,H
209,1713945088768,24/04/2024 07:51:28,1713945088832,2,24/04/2024 09:51:28,143617,34,task-xrbt,,37232506,vhyg4,9856748,,complete,,,computer,Desktop or Laptop,Windows 10,Chrome 124.0.0.0,1920x1080,1920x1080,,,,Alternating Serial Reaction Time (ASRT) task,5,ASRT,365.09999999962747,,83,,,serial-reaction-time,208,1295435,0.0-1933.0-0.0,1,,[],,"[[1,1,1,1]]","[0,0]",P,1,0,6,2314,0,1,s,s,759.9999999990687,331,H
210,1713945089674,24/04/2024 07:51:29,1713945089742,2,24/04/2024 09:51:29,143617,34,task-xrbt,,37232506,vhyg4,9856748,,complete,,,computer,Desktop or Laptop,Windows 10,Chrome 124.0.0.0,1920x1080,1920x1080,,,,Alternating Serial Reaction Time (ASRT) task,5,ASRT,382.1000000005588,,83,,,serial-reaction-time,209,1296346,0.0-1943.0-0.0,1,,[],,"[[1,1,1,1]]","[0,0]",R,1,1,7,2314,0,1,s,s,382.1000000005588,311,H
211,1713945090687,24/04/2024 07:51:30,1713945090735,2,24/04/2024 09:51:30,143617,34,task-xrbt,,37232506,vhyg4,9856748,,complete,,,computer,Desktop or Laptop,Windows 10,Chrome 124.0.0.0,1920x1080,1920x1080,,,,Alternating Serial Reaction Time (ASRT) task,5,ASRT,462,,76,,,serial-reaction-time,210,1297338,0.0-1954.0-0.0,1,,[],,"[[1,1,1,1]]","[0,3]",P,1,1,8,2314,0,4,l,l,462,114,H
212,1713945091789,24/04/2024 07:51:31,1713945091855,2,24/04/2024 09:51:31,143617,34,task-xrbt,,37232506,vhyg4,9856748,,complete,,,computer,Desktop or Laptop,Windows 10,Chrome 124.0.0.0,1920x1080,1920x1080,,,,Alternating Serial Reaction Time (ASRT) task,5,ASRT,584.5999999996275,,70,,,serial-reaction-time,211,1298458,0.0-1965.0-0.0,1,,[],,"[[1,1,1,1]]","[0,1]",R,1,1,9,2314,0,2,f,f,584.5999999996275,142,L
213,1713945092799,24/04/2024 07:51:32,1713945092857,2,24/04/2024 09:51:32,143617,34,task-xrbt,,37232506,vhyg4,9856748,,complete,,,computer,Desktop or Laptop,Windows 10,Chrome 124.0.0.0,1920x1080,1920x1080,,,,Alternating Serial Reaction Time (ASRT) task,5,ASRT,469.1000000005588,,70,,,serial-reaction-time,212,1299460,0.0-1976.0-0.0,1,,[],,"[[1,1,1,1]]","[0,1]",P,1,1,10,2314,0,2,f,f,469.1000000005588,422,H
214,1713945093792,24/04/2024 07:51:33,1713945093840,2,24/04/2024 09:51:33,143617,34,task-xrbt,,37232506,vhyg4,9856748,,complete,,,computer,Desktop or Laptop,Windows 10,Chrome 124.0.0.0,1920x1080,1920x1080,,,,Alternating Serial Reaction Time (ASRT) task,5,ASRT,451.5,,83,,,serial-reaction-time,213,1300444,0.0-1987.0-0.0,1,,[],,"[[1,1,1,1]]","[0,0]",R,1,1,11,2314,0,1,s,s,451.5,221,L
215,1713945094714,24/04/2024 07:51:34,1713945094767,2,24/04/2024 09:51:34,143617,34,task-xrbt,,37232506,vhyg4,9856748,,complete,,,computer,Desktop or Laptop,Windows 10,Chrome 124.0.0.0,1920x1080,1920x1080,,,,Alternating Serial Reaction Time (ASRT) task,5,ASRT,394.5,,74,,,serial-reaction-time,214,1301370,0.0-1998.0-0.0,1,,[],,"[[1,1,1,1]]","[0,2]",P,1,1,12,2314,0,3,j,j,394.5,213,H
216,1713945095514,24/04/2024 07:51:35,1713945095581,2,24/04/2024 09:51:35,143617,34,task-xrbt,,37232506,vhyg4,9856748,,complete,,,computer,Desktop or Laptop,Windows 10,Chrome 124.0.0.0,1920x1080,1920x1080,,,,Alternating Serial Reaction Time (ASRT) task,5,ASRT,292.40000000037253,,76,,,serial-reaction-time,215,1302185,0.0-2009.0-0.0,1,,[],,"[[1,1,1,1]]","[0,3]",R,1,1,13,2314,0,4,l,l,292.40000000037253,134,H
217,1713945096340,24/04/2024 07:51:36,1713945096409,2,24/04/2024 09:51:36,143617,34,task-xrbt,,37232506,vhyg4,9856748,,complete,,,computer,Desktop or Laptop,Windows 10,Chrome 124.0.0.0,1920x1080,1920x1080,,,,Alternating Serial Reaction Time (ASRT) task,5,ASRT,298.20000000018626,,83,,,serial-reaction-time,216,1303012,0.0-2020.0-0.0,1,,[],,"[[1,1,1,1]]","[0,0]",P,1,1,14,2314,0,1,s,s,298.20000000018626,341,H
218,1713945097195,24/04/2024 07:51:37,1713945097259,2,24/04/2024 09:51:37,143617,34,task-xrbt,,37232506,vhyg4,9856748,,complete,,,computer,Desktop or Laptop,Windows 10,Chrome 124.0.0.0,1920x1080,1920x1080,,,,Alternating Serial Reaction Time (ASRT) task,5,ASRT,317.30000000074506,,76,,,serial-reaction-time,217,1303863,0.0-2031.0-0.0,1,,[],,"[[1,1,1,1]]","[0,3]",R,1,1,15,2314,0,4,l,l,317.30000000074506,414,T
219,1713945098027,24/04/2024 07:51:38,1713945098096,2,24/04/2024 09:51:38,143617,34,task-xrbt,,37232506,vhyg4,9856748,,complete,,,computer,Desktop or Laptop,Windows 10,Chrome 124.0.0.0,1920x1080,1920x1080,,,,Alternating Serial Reaction Time (ASRT) task,5,ASRT,307.3999999994412,,76,,,serial-reaction-time,218,1304699,0.0-2042.0-0.0,1,,[],,"[[1,1,1,1]]","[0,3]",P,1,1,16,2314,0,4,l,l,307.3999999994412,144,H
220,1713945098840,24/04/2024 07:51:38,1713945098904,2,24/04/2024 09:51:38,143617,34,task-xrbt,,37232506,vhyg4,9856748,,complete,,,computer,Desktop or Laptop,Windows 10,Chrome 124.0.0.0,1920x1080,1920x1080,,,,Alternating Serial Reaction Time (ASRT) task,5,ASRT,266.79999999981374,,74,,,serial-reaction-time,219,1305507,0.0-2053.0-0.0,,,[],,"[[1,1,1,1]]","[0,1]",R,1,1,17,2314,0,2,f,j,266.79999999981374,442,H
221,1713945099006,24/04/2024 07:51:39,1713945099063,2,24/04/2024 09:51:39,143617,34,task-xrbt,,37232506,vhyg4,9856748,,complete,,,computer,Desktop or Laptop,Windows 10,Chrome 124.0.0.0,1920x1080,1920x1080,,,,Alternating Serial Reaction Time (ASRT) task,5,ASRT,128.40000000037253,,70,,,serial-reaction-time,220,1305667,0.0-2054.0-0.0,1,,[],,"[[1,1,1,1]]","[0,1]",R,1,0,17,2314,0,2,f,f,395.20000000018626,442,H
222,1713945099880,24/04/2024 07:51:39,1713945099944,2,24/04/2024 09:51:39,143617,34,task-xrbt,,37232506,vhyg4,9856748,,complete,,,computer,Desktop or Laptop,Windows 10,Chrome 124.0.0.0,1920x1080,1920x1080,,,,Alternating Serial Reaction Time (ASRT) task,5,ASRT,353.6000000005588,,70,,,serial-reaction-time,221,1306547,0.0-2064.0-0.0,1,,[],,"[[1,1,1,1]]","[0,1]",P,1,1,18,2314,0,2,f,f,353.6000000005588,422,H
223,1713945100740,24/04/2024 07:51:40,1713945100807,2,24/04/2024 09:51:40,143617,34,task-xrbt,,37232506,vhyg4,9856748,,complete,,,computer,Desktop or Laptop,Windows 10,Chrome 124.0.0.0,1920x1080,1920x1080,,,,Alternating Serial Reaction Time (ASRT) task,5,ASRT,332.5,,83,,,serial-reaction-time,222,1307411,0.0-2075.0-0.0,1,,[],,"[[1,1,1,1]]","[0,0]",R,1,1,19,2314,0,1,s,s,332.5,221,L
224,1713945101744,24/04/2024 07:51:41,1713945101808,2,24/04/2024 09:51:41,143617,34,task-xrbt,,37232506,vhyg4,9856748,,complete,,,computer,Desktop or Laptop,Windows 10,Chrome 124.0.0.0,1920x1080,1920x1080,,,,Alternating Serial Reaction Time (ASRT) task,5,ASRT,468.90000000037253,,74,,,serial-reaction-time,223,1308411,0.0-2086.0-0.0,1,,[],,"[[1,1,1,1]]","[0,2]",P,1,1,20,2314,0,3,j,j,468.90000000037253,213,H
225,1713945102849,24/04/2024 07:51:42,1713945102895,2,24/04/2024 09:51:42,143617,34,task-xrbt,,37232506,vhyg4,9856748,,complete,,,computer,Desktop or Laptop,Windows 10,Chrome 124.0.0.0,1920x1080,1920x1080,,,,Alternating Serial Reaction Time (ASRT) task,5,ASRT,559,,74,,,serial-reaction-time,224,1309498,0.0-2097.0-0.0,1,,[],,"[[1,1,1,1]]","[0,2]",R,1,1,21,2314,0,3,j,j,559,133,L
226,1713945103684,24/04/2024 07:51:43,1713945103739,2,24/04/2024 09:51:43,143617,34,task-xrbt,,37232506,vhyg4,9856748,,complete,,,computer,Desktop or Laptop,Windows 10,Chrome 124.0.0.0,1920x1080,1920x1080,,,,Alternating Serial Reaction Time (ASRT) task,5,ASRT,324.1000000005588,,83,,,serial-reaction-time,225,1310343,0.0-2108.0-0.0,1,,[],,"[[1,1,1,1]]","[0,0]",P,1,1,22,2314,0,1,s,s,324.1000000005588,331,H
227,1713945104524,24/04/2024 07:51:44,1713945104577,2,24/04/2024 09:51:44,143617,34,task-xrbt,,37232506,vhyg4,9856748,,complete,,,computer,Desktop or Laptop,Windows 10,Chrome 124.0.0.0,1920x1080,1920x1080,,,,Alternating Serial Reaction Time (ASRT) task,5,ASRT,302.3999999994412,,74,,,serial-reaction-time,226,1311180,0.0-2119.0-0.0,,,[],,"[[1,1,1,1]]","[0,1]",R,1,1,23,2314,0,2,f,j,302.3999999994412,312,L
228,1713945104651,24/04/2024 07:51:44,1713945104716,2,24/04/2024 09:51:44,143617,34,task-xrbt,,37232506,vhyg4,9856748,,complete,,,computer,Desktop or Laptop,Windows 10,Chrome 124.0.0.0,1920x1080,1920x1080,,,,Alternating Serial Reaction Time (ASRT) task,5,ASRT,121.29999999981374,,70,,,serial-reaction-time,227,1311320,0.0-2120.0-0.0,1,,[],,"[[1,1,1,1]]","[0,1]",R,1,0,23,2314,0,2,f,f,423.69999999925494,312,L
229,1713945105571,24/04/2024 07:51:45,1713945105618,2,24/04/2024 09:51:45,143617,34,task-xrbt,,37232506,vhyg4,9856748,,complete,,,computer,Desktop or Laptop,Windows 10,Chrome 124.0.0.0,1920x1080,1920x1080,,,,Alternating Serial Reaction Time (ASRT) task,5,ASRT,356.90000000037253,,76,,,serial-reaction-time,228,1312222,0.0-2130.0-0.0,1,,[],,"[[1,1,1,1]]","[0,3]",P,1,1,24,2314,0,4,l,l,356.90000000037253,124,H
230,1713945106467,24/04/2024 07:51:46,1713945106531,2,24/04/2024 09:51:46,143617,34,task-xrbt,,37232506,vhyg4,9856748,,complete,,,computer,Desktop or Laptop,Windows 10,Chrome 124.0.0.0,1920x1080,1920x1080,,,,Alternating Serial Reaction Time (ASRT) task,5,ASRT,392.90000000037253,,74,,,serial-reaction-time,229,1313135,0.0-2141.0-0.0,1,,[],,"[[1,1,1,1]]","[0,2]",R,1,1,25,2314,0,3,j,j,392.90000000037253,243,H
231,1713945107345,24/04/2024 07:51:47,1713945107392,2,24/04/2024 09:51:47,143617,34,task-xrbt,,37232506,vhyg4,9856748,,complete,,,computer,Desktop or Laptop,Windows 10,Chrome 124.0.0.0,1920x1080,1920x1080,,,,Alternating Serial Reaction Time (ASRT) task,5,ASRT,332.6000000005588,,83,,,serial-reaction-time,230,1313995,0.0-2152.0-0.0,,,[],,"[[1,1,1,1]]","[0,1]",P,1,1,26,2314,0,2,f,s,332.6000000005588,432,H
232,1713945107904,24/04/2024 07:51:47,1713945107975,2,24/04/2024 09:51:47,143617,34,task-xrbt,,37232506,vhyg4,9856748,,complete,,,computer,Desktop or Laptop,Windows 10,Chrome 124.0.0.0,1920x1080,1920x1080,,,,Alternating Serial Reaction Time (ASRT) task,5,ASRT,554.2000000001863,,70,,,serial-reaction-time,231,1314579,0.0-2153.0-0.0,1,,[],,"[[1,1,1,1]]","[0,1]",P,1,0,26,2314,0,2,f,f,886.8000000007451,432,H
233,1713945108909,24/04/2024 07:51:48,1713945108959,2,24/04/2024 09:51:48,143617,34,task-xrbt,,37232506,vhyg4,9856748,,complete,,,computer,Desktop or Laptop,Windows 10,Chrome 124.0.0.0,1920x1080,1920x1080,,,,Alternating Serial Reaction Time (ASRT) task,5,ASRT,456,,74,,,serial-reaction-time,232,1315563,0.0-2163.0-0.0,1,,[],,"[[1,1,1,1]]","[0,2]",R,1,1,27,2314,0,3,j,j,456,323,T
234,1713945109848,24/04/2024 07:51:49,1713945109896,2,24/04/2024 09:51:49,143617,34,task-xrbt,,37232506,vhyg4,9856748,,complete,,,computer,Desktop or Laptop,Windows 10,Chrome 124.0.0.0,1920x1080,1920x1080,,,,Alternating Serial Reaction Time (ASRT) task,5,ASRT,407.09999999962747,,74,,,serial-reaction-time,233,1316500,0.0-2174.0-0.0,1,,[],,"[[1,1,1,1]]","[0,2]",P,1,1,28,2314,0,3,j,j,407.09999999962747,233,H
235,1713945110768,24/04/2024 07:51:50,1713945110816,2,24/04/2024 09:51:50,143617,34,task-xrbt,,37232506,vhyg4,9856748,,complete,,,computer,Desktop or Laptop,Windows 10,Chrome 124.0.0.0,1920x1080,1920x1080,,,,Alternating Serial Reaction Time (ASRT) task,5,ASRT,388.1000000005588,,74,,,serial-reaction-time,234,1317420,0.0-2185.0-0.0,1,,[],,"[[1,1,1,1]]","[0,2]",R,1,1,29,2314,0,3,j,j,388.1000000005588,333,R
236,1713945111651,24/04/2024 07:51:51,1713945111702,2,24/04/2024 09:51:51,143617,34,task-xrbt,,37232506,vhyg4,9856748,,complete,,,computer,Desktop or Laptop,Windows 10,Chrome 124.0.0.0,1920x1080,1920x1080,,,,Alternating Serial Reaction Time (ASRT) task,5,ASRT,355.19999999925494,,83,,,serial-reaction-time,235,1318305,0.0-2196.0-0.0,1,,[],,"[[1,1,1,1]]","[0,0]",P,1,1,30,2314,0,1,s,s,355.19999999925494,331,H
237,1713945112526,24/04/2024 07:51:52,1713945112592,2,24/04/2024 09:51:52,143617,34,task-xrbt,,37232506,vhyg4,9856748,,complete,,,computer,Desktop or Laptop,Windows 10,Chrome 124.0.0.0,1920x1080,1920x1080,,,,Alternating Serial Reaction Time (ASRT) task,5,ASRT,361.29999999981374,,74,,,serial-reaction-time,236,1319195,0.0-2207.0-0.0,1,,[],,"[[1,1,1,1]]","[0,2]",R,1,1,31,2314,0,3,j,j,361.29999999981374,313,T
238,1713945113480,24/04/2024 07:51:53,1713945113542,2,24/04/2024 09:51:53,143617,34,task-xrbt,,37232506,vhyg4,9856748,,complete,,,computer,Desktop or Laptop,Windows 10,Chrome 124.0.0.0,1920x1080,1920x1080,,,,Alternating Serial Reaction Time (ASRT) task,5,ASRT,430.29999999981374,,76,,,serial-reaction-time,237,1320146,0.0-2218.0-0.0,1,,[],,"[[1,1,1,1]]","[0,3]",P,1,1,32,2314,0,4,l,l,430.29999999981374,134,H
239,1713945114445,24/04/2024 07:51:54,1713945114508,2,24/04/2024 09:51:54,143617,34,task-xrbt,,37232506,vhyg4,9856748,,complete,,,computer,Desktop or Laptop,Windows 10,Chrome 124.0.0.0,1920x1080,1920x1080,,,,Alternating Serial Reaction Time (ASRT) task,5,ASRT,432.30000000074506,,70,,,serial-reaction-time,238,1321112,0.0-2229.0-0.0,1,,[],,"[[1,1,1,1]]","[0,1]",R,1,1,33,2314,0,2,f,f,432.30000000074506,342,L
240,1713945115348,24/04/2024 07:51:55,1713945115409,2,24/04/2024 09:51:55,143617,34,task-xrbt,,37232506,vhyg4,9856748,,complete,,,computer,Desktop or Laptop,Windows 10,Chrome 124.0.0.0,1920x1080,1920x1080,,,,Alternating Serial Reaction Time (ASRT) task,5,ASRT,370.20000000018626,,70,,,serial-reaction-time,239,1322013,0.0-2240.0-0.0,1,,[],,"[[1,1,1,1]]","[0,1]",P,1,1,34,2314,0,2,f,f,370.20000000018626,422,H
241,1713945116269,24/04/2024 07:51:56,1713945116322,2,24/04/2024 09:51:56,143617,34,task-xrbt,,37232506,vhyg4,9856748,,complete,,,computer,Desktop or Laptop,Windows 10,Chrome 124.0.0.0,1920x1080,1920x1080,,,,Alternating Serial Reaction Time (ASRT) task,5,ASRT,381.70000000018626,,76,,,serial-reaction-time,240,1322926,0.0-2251.0-0.0,1,,[],,"[[1,1,1,1]]","[0,3]",R,1,1,35,2314,0,4,l,l,381.70000000018626,224,L
242,1713945117188,24/04/2024 07:51:57,1713945117246,2,24/04/2024 09:51:57,143617,34,task-xrbt,,37232506,vhyg4,9856748,,complete,,,computer,Desktop or Laptop,Windows 10,Chrome 124.0.0.0,1920x1080,1920x1080,,,,Alternating Serial Reaction Time (ASRT) task,5,ASRT,401.79999999981374,,74,,,serial-reaction-time,241,1323850,0.0-2262.0-0.0,1,,[],,"[[1,1,1,1]]","[0,2]",P,1,1,36,2314,0,3,j,j,401.79999999981374,243,H
243,1713945118042,24/04/2024 07:51:58,1713945118096,2,24/04/2024 09:51:58,143617,34,task-xrbt,,37232506,vhyg4,9856748,,complete,,,computer,Desktop or Laptop,Windows 10,Chrome 124.0.0.0,1920x1080,1920x1080,,,,Alternating Serial Reaction Time (ASRT) task,5,ASRT,321.1000000005588,,76,,,serial-reaction-time,242,1324700,0.0-2273.0-0.0,1,,[],,"[[1,1,1,1]]","[0,3]",R,1,1,37,2314,0,4,l,l,321.1000000005588,434,T
244,1713945118961,24/04/2024 07:51:58,1713945119023,2,24/04/2024 09:51:59,143617,34,task-xrbt,,37232506,vhyg4,9856748,,complete,,,computer,Desktop or Laptop,Windows 10,Chrome 124.0.0.0,1920x1080,1920x1080,,,,Alternating Serial Reaction Time (ASRT) task,5,ASRT,397.70000000018626,,83,,,serial-reaction-time,243,1325627,0.0-2284.0-0.0,1,,[],,"[[1,1,1,1]]","[0,0]",P,1,1,38,2314,0,1,s,s,397.70000000018626,341,H
245,1713945119843,24/04/2024 07:51:59,1713945119903,2,24/04/2024 09:51:59,143617,34,task-xrbt,,37232506,vhyg4,9856748,,complete,,,computer,Desktop or Laptop,Windows 10,Chrome 124.0.0.0,1920x1080,1920x1080,,,,Alternating Serial Reaction Time (ASRT) task,5,ASRT,349.59999999962747,,83,,,serial-reaction-time,244,1326506,0.0-2295.0-0.0,1,,[],,"[[1,1,1,1]]","[0,0]",R,1,1,39,2314,0,1,s,s,349.59999999962747,411,L
