Event Index,UTC Timestamp,UTC Date and Time,Local Timestamp,Local Timezone,Local Date and Time,Experiment ID,Experiment Version,Tree Node Key,Repeat Key,Schedule ID,Participant Public ID,Participant Private ID,Participant Starting Group,Participant Status,Participant Completion Code,Participant External Session ID,Participant Device Type,Participant Device,Participant OS,Participant Browser,Participant Monitor Size,Participant Viewport Size,Checkpoint,Room ID,Room Order,Task Name,Task Version,randomiser-5g79,rt,stimulus,key_press,test_part,correct_response,trial_type,trial_index,time_elapsed,internal_node_id,correct,success,browser_events,view_history,grid,target,p_or_r,block,first_response,trial_number,sequence,is_practice,correct_pos,correct_resp_button,resp_button,cumulative_RT,actual_triplet,triplet_type
1,1707505283169,09/02/2024 19:01:23,1707505283035,1,09/02/2024 20:01:23,143617,34,task-vmxp,,34980278,tgfb6,9856743,,complete,,,computer,Desktop or Laptop,Mac OS 10.15.7,Chrome 121.0.0.0,1440x900,1440x900,,,,Alternating Serial Reaction Time (ASRT) task,5,Stroop ,,,,,,fullscreen,0,4012,0.0-0.0,,1,"[{""event"":""fullscreenenter"",""trial"":0,""time"":3018}]",,,,,,,,,,,,,,,
2,1707505330020,09/02/2024 19:02:10,1707505329941,1,09/02/2024 20:02:09,143617,34,task-vmxp,,34980278,tgfb6,9856743,,complete,,,computer,Desktop or Laptop,Mac OS 10.15.7,Chrome 121.0.0.0,1440x900,1440x900,,,,Alternating Serial Reaction Time (ASRT) task,5,Stroop ,46882.79999999702,,,,,instructions,1,50918,0.0-1.0,,,[],"[{""page_index"":0,""viewing_time"":28989.29999999702},{""page_index"":1,""viewing_time"":17891.70000000298}]",,,,,,,,,,,,,,
3,1707505332672,09/02/2024 19:02:12,1707505332604,1,09/02/2024 20:02:12,143617,34,task-vmxp,,34980278,tgfb6,9856743,,complete,,,computer,Desktop or Laptop,Mac OS 10.15.7,Chrome 121.0.0.0,1440x900,1440x900,,,,Alternating Serial Reaction Time (ASRT) task,5,Stroop ,2639.7000000029802,"<h2>Now a short practice will start.</h2>
        <p>Please place your fingers in this position on the keyboard:</p>
        <img src=/task/752107/5/asset/keyboard.bmp height='10%'>
        <p><strong>If you are ready, press <strong>any</strong> key to start a practice!</strong></p>",74,,,html-keyboard-response,2,53582,0.0-2.0,,,[],,,,,,,,,,,,,,,
4,1707505333224,09/02/2024 19:02:13,1707505333152,1,09/02/2024 20:02:13,143617,34,task-vmxp,,34980278,tgfb6,9856743,,complete,,,computer,Desktop or Laptop,Mac OS 10.15.7,Chrome 121.0.0.0,1440x900,1440x900,,,,Alternating Serial Reaction Time (ASRT) task,5,Stroop ,525.0999999940395,,76,,,serial-reaction-time,3,54130,0.0-3.0-0.0,1,,[],,"[[1,1,1,1]]","[0,3]",R,1,1,1,1432,1,4,l,l,525.0999999940395,4,X
5,1707505334436,09/02/2024 19:02:14,1707505334379,1,09/02/2024 20:02:14,143617,34,task-vmxp,,34980278,tgfb6,9856743,,complete,,,computer,Desktop or Laptop,Mac OS 10.15.7,Chrome 121.0.0.0,1440x900,1440x900,,,,Alternating Serial Reaction Time (ASRT) task,5,Stroop ,703.4000000059605,,74,,,serial-reaction-time,4,55357,0.0-14.0-0.0,1,,[],,"[[1,1,1,1]]","[0,2]",R,1,1,2,1432,1,3,j,j,703.4000000059605,43,X
6,1707505335423,09/02/2024 19:02:15,1707505335356,1,09/02/2024 20:02:15,143617,34,task-vmxp,,34980278,tgfb6,9856743,,complete,,,computer,Desktop or Laptop,Mac OS 10.15.7,Chrome 121.0.0.0,1440x900,1440x900,,,,Alternating Serial Reaction Time (ASRT) task,5,Stroop ,452,,74,,,serial-reaction-time,5,56334,0.0-25.0-0.0,1,,[],,"[[1,1,1,1]]","[0,2]",R,1,1,3,1432,1,3,j,j,452,433,X
7,1707505336350,09/02/2024 19:02:16,1707505336281,1,09/02/2024 20:02:16,143617,34,task-vmxp,,34980278,tgfb6,9856743,,complete,,,computer,Desktop or Laptop,Mac OS 10.15.7,Chrome 121.0.0.0,1440x900,1440x900,,,,Alternating Serial Reaction Time (ASRT) task,5,Stroop ,397.59999999403954,,76,,,serial-reaction-time,6,57259,0.0-36.0-0.0,1,,[],,"[[1,1,1,1]]","[0,3]",R,1,1,4,1432,1,4,l,l,397.59999999403954,334,X
8,1707505337353,09/02/2024 19:02:17,1707505337275,1,09/02/2024 20:02:17,143617,34,task-vmxp,,34980278,tgfb6,9856743,,complete,,,computer,Desktop or Laptop,Mac OS 10.15.7,Chrome 121.0.0.0,1440x900,1440x900,,,,Alternating Serial Reaction Time (ASRT) task,5,Stroop ,468.80000001192093,,83,,,serial-reaction-time,7,58253,0.0-47.0-0.0,1,,[],,"[[1,1,1,1]]","[0,0]",R,1,1,5,1432,1,1,s,s,468.80000001192093,341,X
9,1707505338350,09/02/2024 19:02:18,1707505338284,1,09/02/2024 20:02:18,143617,34,task-vmxp,,34980278,tgfb6,9856743,,complete,,,computer,Desktop or Laptop,Mac OS 10.15.7,Chrome 121.0.0.0,1440x900,1440x900,,,,Alternating Serial Reaction Time (ASRT) task,5,Stroop ,486.09999999403954,,74,,,serial-reaction-time,8,59262,0.0-58.0-0.0,1,,[],,"[[1,1,1,1]]","[0,2]",R,1,1,6,1432,1,3,j,j,486.09999999403954,413,X
10,1707505339346,09/02/2024 19:02:19,1707505339260,1,09/02/2024 20:02:19,143617,34,task-vmxp,,34980278,tgfb6,9856743,,complete,,,computer,Desktop or Laptop,Mac OS 10.15.7,Chrome 121.0.0.0,1440x900,1440x900,,,,Alternating Serial Reaction Time (ASRT) task,5,Stroop ,451.3999999910593,,83,,,serial-reaction-time,9,60238,0.0-69.0-0.0,1,,[],,"[[1,1,1,1]]","[0,0]",R,1,1,7,1432,1,1,s,s,451.3999999910593,131,X
11,1707505340375,09/02/2024 19:02:20,1707505340125,1,09/02/2024 20:02:20,143617,34,task-vmxp,,34980278,tgfb6,9856743,,complete,,,computer,Desktop or Laptop,Mac OS 10.15.7,Chrome 121.0.0.0,1440x900,1440x900,,,,Alternating Serial Reaction Time (ASRT) task,5,Stroop ,339.79999999701977,,74,,,serial-reaction-time,10,61103,0.0-80.0-0.0,1,,[],,"[[1,1,1,1]]","[0,2]",R,1,1,8,1432,1,3,j,j,339.79999999701977,313,X
12,1707505341148,09/02/2024 19:02:21,1707505341069,1,09/02/2024 20:02:21,143617,34,task-vmxp,,34980278,tgfb6,9856743,,complete,,,computer,Desktop or Laptop,Mac OS 10.15.7,Chrome 121.0.0.0,1440x900,1440x900,,,,Alternating Serial Reaction Time (ASRT) task,5,Stroop ,418.3999999910593,,70,,,serial-reaction-time,11,62047,0.0-91.0-0.0,1,,[],,"[[1,1,1,1]]","[0,1]",R,1,1,9,1432,1,2,f,f,418.3999999910593,132,X
13,1707505342017,09/02/2024 19:02:22,1707505341919,1,09/02/2024 20:02:21,143617,34,task-vmxp,,34980278,tgfb6,9856743,,complete,,,computer,Desktop or Laptop,Mac OS 10.15.7,Chrome 121.0.0.0,1440x900,1440x900,,,,Alternating Serial Reaction Time (ASRT) task,5,Stroop ,327.20000000298023,,74,,,serial-reaction-time,12,62897,0.0-102.0-0.0,1,,[],,"[[1,1,1,1]]","[0,2]",R,1,1,10,1432,1,3,j,j,327.20000000298023,323,X
14,1707505342845,09/02/2024 19:02:22,1707505342766,1,09/02/2024 20:02:22,143617,34,task-vmxp,,34980278,tgfb6,9856743,,complete,,,computer,Desktop or Laptop,Mac OS 10.15.7,Chrome 121.0.0.0,1440x900,1440x900,,,,Alternating Serial Reaction Time (ASRT) task,5,Stroop ,321,,83,,,serial-reaction-time,13,63744,0.0-113.0-0.0,1,,[],,"[[1,1,1,1]]","[0,0]",R,1,1,11,1432,1,1,s,s,321,231,X
15,1707505343691,09/02/2024 19:02:23,1707505343613,1,09/02/2024 20:02:23,143617,34,task-vmxp,,34980278,tgfb6,9856743,,complete,,,computer,Desktop or Laptop,Mac OS 10.15.7,Chrome 121.0.0.0,1440x900,1440x900,,,,Alternating Serial Reaction Time (ASRT) task,5,Stroop ,320.59999999403954,,70,,,serial-reaction-time,14,64591,0.0-124.0-0.0,1,,[],,"[[1,1,1,1]]","[0,1]",R,1,1,12,1432,1,2,f,f,320.59999999403954,312,X
16,1707505344571,09/02/2024 19:02:24,1707505344492,1,09/02/2024 20:02:24,143617,34,task-vmxp,,34980278,tgfb6,9856743,,complete,,,computer,Desktop or Laptop,Mac OS 10.15.7,Chrome 121.0.0.0,1440x900,1440x900,,,,Alternating Serial Reaction Time (ASRT) task,5,Stroop ,353.79999999701977,,70,,,serial-reaction-time,15,65470,0.0-135.0-0.0,1,,[],,"[[1,1,1,1]]","[0,1]",R,1,1,13,1432,1,2,f,f,353.79999999701977,122,X
17,1707505345473,09/02/2024 19:02:25,1707505345416,1,09/02/2024 20:02:25,143617,34,task-vmxp,,34980278,tgfb6,9856743,,complete,,,computer,Desktop or Laptop,Mac OS 10.15.7,Chrome 121.0.0.0,1440x900,1440x900,,,,Alternating Serial Reaction Time (ASRT) task,5,Stroop ,398.1000000089407,,74,,,serial-reaction-time,16,66394,0.0-146.0-0.0,1,,[],,"[[1,1,1,1]]","[0,2]",R,1,1,14,1432,1,3,j,j,398.1000000089407,223,X
18,1707505346355,09/02/2024 19:02:26,1707505346273,1,09/02/2024 20:02:26,143617,34,task-vmxp,,34980278,tgfb6,9856743,,complete,,,computer,Desktop or Laptop,Mac OS 10.15.7,Chrome 121.0.0.0,1440x900,1440x900,,,,Alternating Serial Reaction Time (ASRT) task,5,Stroop ,331.20000000298023,,70,,,serial-reaction-time,17,67251,0.0-157.0-0.0,1,,[],,"[[1,1,1,1]]","[0,1]",R,1,1,15,1432,1,2,f,f,331.20000000298023,232,X
19,1707505347214,09/02/2024 19:02:27,1707505347146,1,09/02/2024 20:02:27,143617,34,task-vmxp,,34980278,tgfb6,9856743,,complete,,,computer,Desktop or Laptop,Mac OS 10.15.7,Chrome 121.0.0.0,1440x900,1440x900,,,,Alternating Serial Reaction Time (ASRT) task,5,Stroop ,348.70000000298023,,70,,,serial-reaction-time,18,68124,0.0-168.0-0.0,1,,[],,"[[1,1,1,1]]","[0,1]",R,1,1,16,1432,1,2,f,f,348.70000000298023,322,X
20,1707505348019,09/02/2024 19:02:28,1707505347954,1,09/02/2024 20:02:27,143617,34,task-vmxp,,34980278,tgfb6,9856743,,complete,,,computer,Desktop or Laptop,Mac OS 10.15.7,Chrome 121.0.0.0,1440x900,1440x900,,,,Alternating Serial Reaction Time (ASRT) task,5,Stroop ,283.79999999701977,,70,,,serial-reaction-time,19,68932,0.0-179.0-0.0,1,,[],,"[[1,1,1,1]]","[0,1]",R,1,1,17,1432,1,2,f,f,283.79999999701977,222,X
21,1707505348845,09/02/2024 19:02:28,1707505348766,1,09/02/2024 20:02:28,143617,34,task-vmxp,,34980278,tgfb6,9856743,,complete,,,computer,Desktop or Laptop,Mac OS 10.15.7,Chrome 121.0.0.0,1440x900,1440x900,,,,Alternating Serial Reaction Time (ASRT) task,5,Stroop ,287.79999999701977,,70,,,serial-reaction-time,20,69744,0.0-190.0-0.0,1,,[],,"[[1,1,1,1]]","[0,1]",R,1,1,18,1432,1,2,f,f,287.79999999701977,222,X
22,1707505349713,09/02/2024 19:02:29,1707505349635,1,09/02/2024 20:02:29,143617,34,task-vmxp,,34980278,tgfb6,9856743,,complete,,,computer,Desktop or Laptop,Mac OS 10.15.7,Chrome 121.0.0.0,1440x900,1440x900,,,,Alternating Serial Reaction Time (ASRT) task,5,Stroop ,343.5,,83,,,serial-reaction-time,21,70613,0.0-201.0-0.0,1,,[],,"[[1,1,1,1]]","[0,0]",R,1,1,19,1432,1,1,s,s,343.5,221,X
23,1707505350549,09/02/2024 19:02:30,1707505350479,1,09/02/2024 20:02:30,143617,34,task-vmxp,,34980278,tgfb6,9856743,,complete,,,computer,Desktop or Laptop,Mac OS 10.15.7,Chrome 121.0.0.0,1440x900,1440x900,,,,Alternating Serial Reaction Time (ASRT) task,5,Stroop ,318.3999999910593,,83,,,serial-reaction-time,22,71457,0.0-212.0-0.0,1,,[],,"[[1,1,1,1]]","[0,0]",R,1,1,20,1432,1,1,s,s,318.3999999910593,211,X
24,1707505351479,09/02/2024 19:02:31,1707505351402,1,09/02/2024 20:02:31,143617,34,task-vmxp,,34980278,tgfb6,9856743,,complete,,,computer,Desktop or Laptop,Mac OS 10.15.7,Chrome 121.0.0.0,1440x900,1440x900,,,,Alternating Serial Reaction Time (ASRT) task,5,Stroop ,398.79999999701977,,76,,,serial-reaction-time,23,72380,0.0-223.0-0.0,1,,[],,"[[1,1,1,1]]","[0,3]",R,1,1,21,1432,1,4,l,l,398.79999999701977,114,X
25,1707505352399,09/02/2024 19:02:32,1707505352299,1,09/02/2024 20:02:32,143617,34,task-vmxp,,34980278,tgfb6,9856743,,complete,,,computer,Desktop or Laptop,Mac OS 10.15.7,Chrome 121.0.0.0,1440x900,1440x900,,,,Alternating Serial Reaction Time (ASRT) task,5,Stroop ,370.90000000596046,,83,,,serial-reaction-time,24,73276,0.0-234.0-0.0,1,,[],,"[[1,1,1,1]]","[0,0]",R,1,1,22,1432,1,1,s,s,370.90000000596046,141,X
26,1707505353262,09/02/2024 19:02:33,1707505353154,1,09/02/2024 20:02:33,143617,34,task-vmxp,,34980278,tgfb6,9856743,,complete,,,computer,Desktop or Laptop,Mac OS 10.15.7,Chrome 121.0.0.0,1440x900,1440x900,,,,Alternating Serial Reaction Time (ASRT) task,5,Stroop ,328.70000000298023,,74,,,serial-reaction-time,25,74131,0.0-245.0-0.0,1,,[],,"[[1,1,1,1]]","[0,2]",R,1,1,23,1432,1,3,j,j,328.70000000298023,413,X
27,1707505354113,09/02/2024 19:02:34,1707505354017,1,09/02/2024 20:02:34,143617,34,task-vmxp,,34980278,tgfb6,9856743,,complete,,,computer,Desktop or Laptop,Mac OS 10.15.7,Chrome 121.0.0.0,1440x900,1440x900,,,,Alternating Serial Reaction Time (ASRT) task,5,Stroop ,339.29999999701977,,83,,,serial-reaction-time,26,74994,0.0-256.0-0.0,1,,[],,"[[1,1,1,1]]","[0,0]",R,1,1,24,1432,1,1,s,s,339.29999999701977,131,X
28,1707505354926,09/02/2024 19:02:34,1707505354854,1,09/02/2024 20:02:34,143617,34,task-vmxp,,34980278,tgfb6,9856743,,complete,,,computer,Desktop or Laptop,Mac OS 10.15.7,Chrome 121.0.0.0,1440x900,1440x900,,,,Alternating Serial Reaction Time (ASRT) task,5,Stroop ,312,,74,,,serial-reaction-time,27,75832,0.0-267.0-0.0,1,,[],,"[[1,1,1,1]]","[0,2]",R,1,1,25,1432,1,3,j,j,312,313,X
29,1707505355798,09/02/2024 19:02:35,1707505355720,1,09/02/2024 20:02:35,143617,34,task-vmxp,,34980278,tgfb6,9856743,,complete,,,computer,Desktop or Laptop,Mac OS 10.15.7,Chrome 121.0.0.0,1440x900,1440x900,,,,Alternating Serial Reaction Time (ASRT) task,5,Stroop ,342.5,,76,,,serial-reaction-time,28,76698,0.0-278.0-0.0,1,,[],,"[[1,1,1,1]]","[0,3]",R,1,1,26,1432,1,4,l,l,342.5,134,X
30,1707505356631,09/02/2024 19:02:36,1707505356553,1,09/02/2024 20:02:36,143617,34,task-vmxp,,34980278,tgfb6,9856743,,complete,,,computer,Desktop or Laptop,Mac OS 10.15.7,Chrome 121.0.0.0,1440x900,1440x900,,,,Alternating Serial Reaction Time (ASRT) task,5,Stroop ,307.29999999701977,,74,,,serial-reaction-time,29,77531,0.0-289.0-0.0,1,,[],,"[[1,1,1,1]]","[0,2]",R,1,1,27,1432,1,3,j,j,307.29999999701977,343,X
31,1707505357458,09/02/2024 19:02:37,1707505357376,1,09/02/2024 20:02:37,143617,34,task-vmxp,,34980278,tgfb6,9856743,,complete,,,computer,Desktop or Laptop,Mac OS 10.15.7,Chrome 121.0.0.0,1440x900,1440x900,,,,Alternating Serial Reaction Time (ASRT) task,5,Stroop ,299.3999999910593,,83,,,serial-reaction-time,30,78354,0.0-300.0-0.0,1,,[],,"[[1,1,1,1]]","[0,0]",R,1,1,28,1432,1,1,s,s,299.3999999910593,431,X
32,1707505358308,09/02/2024 19:02:38,1707505358250,1,09/02/2024 20:02:38,143617,34,task-vmxp,,34980278,tgfb6,9856743,,complete,,,computer,Desktop or Laptop,Mac OS 10.15.7,Chrome 121.0.0.0,1440x900,1440x900,,,,Alternating Serial Reaction Time (ASRT) task,5,Stroop ,348.20000000298023,,83,,,serial-reaction-time,31,79228,0.0-311.0-0.0,1,,[],,"[[1,1,1,1]]","[0,0]",R,1,1,29,1432,1,1,s,s,348.20000000298023,311,X
33,1707505359211,09/02/2024 19:02:39,1707505359132,1,09/02/2024 20:02:39,143617,34,task-vmxp,,34980278,tgfb6,9856743,,complete,,,computer,Desktop or Laptop,Mac OS 10.15.7,Chrome 121.0.0.0,1440x900,1440x900,,,,Alternating Serial Reaction Time (ASRT) task,5,Stroop ,357.8999999910593,,76,,,serial-reaction-time,32,80110,0.0-322.0-0.0,1,,[],,"[[1,1,1,1]]","[0,3]",R,1,1,30,1432,1,4,l,l,357.8999999910593,114,X
34,1707505360107,09/02/2024 19:02:40,1707505359977,1,09/02/2024 20:02:39,143617,34,task-vmxp,,34980278,tgfb6,9856743,,complete,,,computer,Desktop or Laptop,Mac OS 10.15.7,Chrome 121.0.0.0,1440x900,1440x900,,,,Alternating Serial Reaction Time (ASRT) task,5,Stroop ,322.1000000089407,,70,,,serial-reaction-time,33,80955,0.0-333.0-0.0,1,,[],,"[[1,1,1,1]]","[0,1]",R,1,1,31,1432,1,2,f,f,322.1000000089407,142,X
35,1707505360898,09/02/2024 19:02:40,1707505360813,1,09/02/2024 20:02:40,143617,34,task-vmxp,,34980278,tgfb6,9856743,,complete,,,computer,Desktop or Laptop,Mac OS 10.15.7,Chrome 121.0.0.0,1440x900,1440x900,,,,Alternating Serial Reaction Time (ASRT) task,5,Stroop ,309.5,,70,,,serial-reaction-time,34,81791,0.0-344.0-0.0,1,,[],,"[[1,1,1,1]]","[0,1]",R,1,1,32,1432,1,2,f,f,309.5,422,X
36,1707505361702,09/02/2024 19:02:41,1707505361627,1,09/02/2024 20:02:41,143617,34,task-vmxp,,34980278,tgfb6,9856743,,complete,,,computer,Desktop or Laptop,Mac OS 10.15.7,Chrome 121.0.0.0,1440x900,1440x900,,,,Alternating Serial Reaction Time (ASRT) task,5,Stroop ,287.1000000089407,,70,,,serial-reaction-time,35,82605,0.0-355.0-0.0,1,,[],,"[[1,1,1,1]]","[0,1]",R,1,1,33,1432,1,2,f,f,287.1000000089407,222,X
37,1707505362632,09/02/2024 19:02:42,1707505362523,1,09/02/2024 20:02:42,143617,34,task-vmxp,,34980278,tgfb6,9856743,,complete,,,computer,Desktop or Laptop,Mac OS 10.15.7,Chrome 121.0.0.0,1440x900,1440x900,,,,Alternating Serial Reaction Time (ASRT) task,5,Stroop ,370.6000000089407,,83,,,serial-reaction-time,36,83501,0.0-366.0-0.0,1,,[],,"[[1,1,1,1]]","[0,0]",R,1,1,34,1432,1,1,s,s,370.6000000089407,221,X
38,1707505363404,09/02/2024 19:02:43,1707505363330,1,09/02/2024 20:02:43,143617,34,task-vmxp,,34980278,tgfb6,9856743,,complete,,,computer,Desktop or Laptop,Mac OS 10.15.7,Chrome 121.0.0.0,1440x900,1440x900,,,,Alternating Serial Reaction Time (ASRT) task,5,Stroop ,281.20000000298023,,74,,,serial-reaction-time,37,84308,0.0-377.0-0.0,1,,[],,"[[1,1,1,1]]","[0,2]",R,1,1,35,1432,1,3,j,j,281.20000000298023,213,X
39,1707505364252,09/02/2024 19:02:44,1707505364172,1,09/02/2024 20:02:44,143617,34,task-vmxp,,34980278,tgfb6,9856743,,complete,,,computer,Desktop or Laptop,Mac OS 10.15.7,Chrome 121.0.0.0,1440x900,1440x900,,,,Alternating Serial Reaction Time (ASRT) task,5,Stroop ,315.40000000596046,,74,,,serial-reaction-time,38,85150,0.0-388.0-0.0,1,,[],,"[[1,1,1,1]]","[0,2]",R,1,1,36,1432,1,3,j,j,315.40000000596046,133,X
40,1707505365137,09/02/2024 19:02:45,1707505365067,1,09/02/2024 20:02:45,143617,34,task-vmxp,,34980278,tgfb6,9856743,,complete,,,computer,Desktop or Laptop,Mac OS 10.15.7,Chrome 121.0.0.0,1440x900,1440x900,,,,Alternating Serial Reaction Time (ASRT) task,5,Stroop ,371.79999999701977,,83,,,serial-reaction-time,39,86044,0.0-399.0-0.0,1,,[],,"[[1,1,1,1]]","[0,0]",R,1,1,37,1432,1,1,s,s,371.79999999701977,331,X
41,1707505366018,09/02/2024 19:02:46,1707505365937,1,09/02/2024 20:02:45,143617,34,task-vmxp,,34980278,tgfb6,9856743,,complete,,,computer,Desktop or Laptop,Mac OS 10.15.7,Chrome 121.0.0.0,1440x900,1440x900,,,,Alternating Serial Reaction Time (ASRT) task,5,Stroop ,348.3999999910593,,70,,,serial-reaction-time,40,86915,0.0-410.0-0.0,1,,[],,"[[1,1,1,1]]","[0,1]",R,1,1,38,1432,1,2,f,f,348.3999999910593,312,X
42,1707505366886,09/02/2024 19:02:46,1707505366808,1,09/02/2024 20:02:46,143617,34,task-vmxp,,34980278,tgfb6,9856743,,complete,,,computer,Desktop or Laptop,Mac OS 10.15.7,Chrome 121.0.0.0,1440x900,1440x900,,,,Alternating Serial Reaction Time (ASRT) task,5,Stroop ,346.40000000596046,,76,,,serial-reaction-time,41,87786,0.0-421.0-0.0,1,,[],,"[[1,1,1,1]]","[0,3]",R,1,1,39,1432,1,4,l,l,346.40000000596046,124,X
43,1707505367727,09/02/2024 19:02:47,1707505367666,1,09/02/2024 20:02:47,143617,34,task-vmxp,,34980278,tgfb6,9856743,,complete,,,computer,Desktop or Laptop,Mac OS 10.15.7,Chrome 121.0.0.0,1440x900,1440x900,,,,Alternating Serial Reaction Time (ASRT) task,5,Stroop ,332.8999999910593,,83,,,serial-reaction-time,42,88644,0.0-432.0-0.0,1,,[],,"[[1,1,1,1]]","[0,0]",R,1,1,40,1432,1,1,s,s,332.8999999910593,241,X
44,1707505368622,09/02/2024 19:02:48,1707505368546,1,09/02/2024 20:02:48,143617,34,task-vmxp,,34980278,tgfb6,9856743,,complete,,,computer,Desktop or Laptop,Mac OS 10.15.7,Chrome 121.0.0.0,1440x900,1440x900,,,,Alternating Serial Reaction Time (ASRT) task,5,Stroop ,356.29999999701977,,76,,,serial-reaction-time,43,89524,0.0-443.0-0.0,1,,[],,"[[1,1,1,1]]","[0,3]",R,1,1,41,1432,1,4,l,l,356.29999999701977,414,X
45,1707505369499,09/02/2024 19:02:49,1707505369425,1,09/02/2024 20:02:49,143617,34,task-vmxp,,34980278,tgfb6,9856743,,complete,,,computer,Desktop or Laptop,Mac OS 10.15.7,Chrome 121.0.0.0,1440x900,1440x900,,,,Alternating Serial Reaction Time (ASRT) task,5,Stroop ,351.70000000298023,,83,,,serial-reaction-time,44,90403,0.0-454.0-0.0,1,,[],,"[[1,1,1,1]]","[0,0]",R,1,1,42,1432,1,1,s,s,351.70000000298023,141,X
46,1707505370373,09/02/2024 19:02:50,1707505370305,1,09/02/2024 20:02:50,143617,34,task-vmxp,,34980278,tgfb6,9856743,,complete,,,computer,Desktop or Laptop,Mac OS 10.15.7,Chrome 121.0.0.0,1440x900,1440x900,,,,Alternating Serial Reaction Time (ASRT) task,5,Stroop ,356.20000000298023,,83,,,serial-reaction-time,45,91282,0.0-465.0-0.0,1,,[],,"[[1,1,1,1]]","[0,0]",R,1,1,43,1432,1,1,s,s,356.20000000298023,411,X
47,1707505371229,09/02/2024 19:02:51,1707505371161,1,09/02/2024 20:02:51,143617,34,task-vmxp,,34980278,tgfb6,9856743,,complete,,,computer,Desktop or Laptop,Mac OS 10.15.7,Chrome 121.0.0.0,1440x900,1440x900,,,,Alternating Serial Reaction Time (ASRT) task,5,Stroop ,331.40000000596046,,70,,,serial-reaction-time,46,92139,0.0-476.0-0.0,1,,[],,"[[1,1,1,1]]","[0,1]",R,1,1,44,1432,1,2,f,f,331.40000000596046,112,X
48,1707505372104,09/02/2024 19:02:52,1707505372027,1,09/02/2024 20:02:52,143617,34,task-vmxp,,34980278,tgfb6,9856743,,complete,,,computer,Desktop or Laptop,Mac OS 10.15.7,Chrome 121.0.0.0,1440x900,1440x900,,,,Alternating Serial Reaction Time (ASRT) task,5,Stroop ,340.09999999403954,,83,,,serial-reaction-time,47,93005,0.0-487.0-0.0,1,,[],,"[[1,1,1,1]]","[0,0]",R,1,1,45,1432,1,1,s,s,340.09999999403954,121,X
49,1707505372926,09/02/2024 19:02:52,1707505372834,1,09/02/2024 20:02:52,143617,34,task-vmxp,,34980278,tgfb6,9856743,,complete,,,computer,Desktop or Laptop,Mac OS 10.15.7,Chrome 121.0.0.0,1440x900,1440x900,,,,Alternating Serial Reaction Time (ASRT) task,5,Stroop ,280.6000000089407,,74,,,serial-reaction-time,48,93812,0.0-498.0-0.0,1,,[],,"[[1,1,1,1]]","[0,2]",R,1,1,46,1432,1,3,j,j,280.6000000089407,213,X
50,1707505373784,09/02/2024 19:02:53,1707505373676,1,09/02/2024 20:02:53,143617,34,task-vmxp,,34980278,tgfb6,9856743,,complete,,,computer,Desktop or Laptop,Mac OS 10.15.7,Chrome 121.0.0.0,1440x900,1440x900,,,,Alternating Serial Reaction Time (ASRT) task,5,Stroop ,316.29999999701977,,70,,,serial-reaction-time,49,94654,0.0-509.0-0.0,1,,[],,"[[1,1,1,1]]","[0,1]",R,1,1,47,1432,1,2,f,f,316.29999999701977,132,X
51,1707505374659,09/02/2024 19:02:54,1707505374547,1,09/02/2024 20:02:54,143617,34,task-vmxp,,34980278,tgfb6,9856743,,complete,,,computer,Desktop or Laptop,Mac OS 10.15.7,Chrome 121.0.0.0,1440x900,1440x900,,,,Alternating Serial Reaction Time (ASRT) task,5,Stroop ,347,,74,,,serial-reaction-time,50,95524,0.0-520.0-0.0,1,,[],,"[[1,1,1,1]]","[0,2]",R,1,1,48,1432,1,3,j,j,347,323,X
52,1707505375456,09/02/2024 19:02:55,1707505375391,1,09/02/2024 20:02:55,143617,34,task-vmxp,,34980278,tgfb6,9856743,,complete,,,computer,Desktop or Laptop,Mac OS 10.15.7,Chrome 121.0.0.0,1440x900,1440x900,,,,Alternating Serial Reaction Time (ASRT) task,5,Stroop ,318.20000000298023,,70,,,serial-reaction-time,51,96369,0.0-531.0-0.0,1,,[],,"[[1,1,1,1]]","[0,1]",R,1,1,49,1432,1,2,f,f,318.20000000298023,232,X
53,1707505376309,09/02/2024 19:02:56,1707505376236,1,09/02/2024 20:02:56,143617,34,task-vmxp,,34980278,tgfb6,9856743,,complete,,,computer,Desktop or Laptop,Mac OS 10.15.7,Chrome 121.0.0.0,1440x900,1440x900,,,,Alternating Serial Reaction Time (ASRT) task,5,Stroop ,318,,70,,,serial-reaction-time,52,97214,0.0-542.0-0.0,1,,[],,"[[1,1,1,1]]","[0,1]",R,1,1,50,1432,1,2,f,f,318,322,X
54,1707505377243,09/02/2024 19:02:57,1707505377145,1,09/02/2024 20:02:57,143617,34,task-vmxp,,34980278,tgfb6,9856743,,complete,,,computer,Desktop or Laptop,Mac OS 10.15.7,Chrome 121.0.0.0,1440x900,1440x900,,,,Alternating Serial Reaction Time (ASRT) task,5,Stroop ,385,,74,,,serial-reaction-time,53,98123,0.0-553.0-0.0,1,,[],,"[[1,1,1,1]]","[0,2]",R,1,1,51,1432,1,3,j,j,385,223,X
55,1707505378135,09/02/2024 19:02:58,1707505378060,1,09/02/2024 20:02:58,143617,34,task-vmxp,,34980278,tgfb6,9856743,,complete,,,computer,Desktop or Laptop,Mac OS 10.15.7,Chrome 121.0.0.0,1440x900,1440x900,,,,Alternating Serial Reaction Time (ASRT) task,5,Stroop ,391.20000000298023,,83,,,serial-reaction-time,54,99038,0.0-564.0-0.0,1,,[],,"[[1,1,1,1]]","[0,0]",R,1,1,52,1432,1,1,s,s,391.20000000298023,231,X
56,1707505379019,09/02/2024 19:02:59,1707505378923,1,09/02/2024 20:02:58,143617,34,task-vmxp,,34980278,tgfb6,9856743,,complete,,,computer,Desktop or Laptop,Mac OS 10.15.7,Chrome 121.0.0.0,1440x900,1440x900,,,,Alternating Serial Reaction Time (ASRT) task,5,Stroop ,338.20000000298023,,76,,,serial-reaction-time,55,99901,0.0-575.0-0.0,1,,[],,"[[1,1,1,1]]","[0,3]",R,1,1,53,1432,1,4,l,l,338.20000000298023,314,X
57,1707505379854,09/02/2024 19:02:59,1707505379777,1,09/02/2024 20:02:59,143617,34,task-vmxp,,34980278,tgfb6,9856743,,complete,,,computer,Desktop or Laptop,Mac OS 10.15.7,Chrome 121.0.0.0,1440x900,1440x900,,,,Alternating Serial Reaction Time (ASRT) task,5,Stroop ,329.09999999403954,,76,,,serial-reaction-time,56,100754,0.0-586.0-0.0,,,[],,"[[1,1,1,1]]","[0,2]",R,1,1,54,1432,1,3,j,l,329.09999999403954,143,X
58,1707505380263,09/02/2024 19:03:00,1707505380196,1,09/02/2024 20:03:00,143617,34,task-vmxp,,34980278,tgfb6,9856743,,complete,,,computer,Desktop or Laptop,Mac OS 10.15.7,Chrome 121.0.0.0,1440x900,1440x900,,,,Alternating Serial Reaction Time (ASRT) task,5,Stroop ,398.8999999910593,,74,,,serial-reaction-time,57,101174,0.0-587.0-0.0,1,,[],,"[[1,1,1,1]]","[0,2]",R,1,0,54,1432,1,3,j,j,727.9999999850988,143,X
59,1707505381155,09/02/2024 19:03:01,1707505381083,1,09/02/2024 20:03:01,143617,34,task-vmxp,,34980278,tgfb6,9856743,,complete,,,computer,Desktop or Laptop,Mac OS 10.15.7,Chrome 121.0.0.0,1440x900,1440x900,,,,Alternating Serial Reaction Time (ASRT) task,5,Stroop ,362.70000000298023,,83,,,serial-reaction-time,58,102061,0.0-597.0-0.0,1,,[],,"[[1,1,1,1]]","[0,0]",R,1,1,55,1432,1,1,s,s,362.70000000298023,431,X
60,1707505382058,09/02/2024 19:03:02,1707505381963,1,09/02/2024 20:03:01,143617,34,task-vmxp,,34980278,tgfb6,9856743,,complete,,,computer,Desktop or Laptop,Mac OS 10.15.7,Chrome 121.0.0.0,1440x900,1440x900,,,,Alternating Serial Reaction Time (ASRT) task,5,Stroop ,354.90000000596046,,83,,,serial-reaction-time,59,102941,0.0-608.0-0.0,1,,[],,"[[1,1,1,1]]","[0,0]",R,1,1,56,1432,1,1,s,s,354.90000000596046,311,X
61,1707505382831,09/02/2024 19:03:02,1707505382758,1,09/02/2024 20:03:02,143617,34,task-vmxp,,34980278,tgfb6,9856743,,complete,,,computer,Desktop or Laptop,Mac OS 10.15.7,Chrome 121.0.0.0,1440x900,1440x900,,,,Alternating Serial Reaction Time (ASRT) task,5,Stroop ,270.8999999910593,,83,,,serial-reaction-time,60,103736,0.0-619.0-0.0,1,,[],,"[[1,1,1,1]]","[0,0]",R,1,1,57,1432,1,1,s,s,270.8999999910593,111,X
62,1707505383720,09/02/2024 19:03:03,1707505383647,1,09/02/2024 20:03:03,143617,34,task-vmxp,,34980278,tgfb6,9856743,,complete,,,computer,Desktop or Laptop,Mac OS 10.15.7,Chrome 121.0.0.0,1440x900,1440x900,,,,Alternating Serial Reaction Time (ASRT) task,5,Stroop ,363,,74,,,serial-reaction-time,61,104625,0.0-630.0-0.0,1,,[],,"[[1,1,1,1]]","[0,2]",R,1,1,58,1432,1,3,j,j,363,113,X
63,1707505384556,09/02/2024 19:03:04,1707505384485,1,09/02/2024 20:03:04,143617,34,task-vmxp,,34980278,tgfb6,9856743,,complete,,,computer,Desktop or Laptop,Mac OS 10.15.7,Chrome 121.0.0.0,1440x900,1440x900,,,,Alternating Serial Reaction Time (ASRT) task,5,Stroop ,316.80000001192093,,70,,,serial-reaction-time,62,105462,0.0-641.0-0.0,1,,[],,"[[1,1,1,1]]","[0,1]",R,1,1,59,1432,1,2,f,f,316.80000001192093,132,X
64,1707505385515,09/02/2024 19:03:05,1707505385449,1,09/02/2024 20:03:05,143617,34,task-vmxp,,34980278,tgfb6,9856743,,complete,,,computer,Desktop or Laptop,Mac OS 10.15.7,Chrome 121.0.0.0,1440x900,1440x900,,,,Alternating Serial Reaction Time (ASRT) task,5,Stroop ,438.1000000089407,,83,,,serial-reaction-time,63,106427,0.0-652.0-0.0,1,,[],,"[[1,1,1,1]]","[0,0]",R,1,1,60,1432,1,1,s,s,438.1000000089407,321,X
65,1707505386444,09/02/2024 19:03:06,1707505386379,1,09/02/2024 20:03:06,143617,34,task-vmxp,,34980278,tgfb6,9856743,,complete,,,computer,Desktop or Laptop,Mac OS 10.15.7,Chrome 121.0.0.0,1440x900,1440x900,,,,Alternating Serial Reaction Time (ASRT) task,5,Stroop ,406.30000001192093,,76,,,serial-reaction-time,64,107357,0.0-663.0-0.0,1,,[],,"[[1,1,1,1]]","[0,3]",R,1,1,61,1432,1,4,l,l,406.30000001192093,214,X
66,1707505387443,09/02/2024 19:03:07,1707505387361,1,09/02/2024 20:03:07,143617,34,task-vmxp,,34980278,tgfb6,9856743,,complete,,,computer,Desktop or Laptop,Mac OS 10.15.7,Chrome 121.0.0.0,1440x900,1440x900,,,,Alternating Serial Reaction Time (ASRT) task,5,Stroop ,455,,83,,,serial-reaction-time,65,108339,0.0-674.0-0.0,1,,[],,"[[1,1,1,1]]","[0,0]",R,1,1,62,1432,1,1,s,s,455,141,X
67,1707505388271,09/02/2024 19:03:08,1707505388199,1,09/02/2024 20:03:08,143617,34,task-vmxp,,34980278,tgfb6,9856743,,complete,,,computer,Desktop or Laptop,Mac OS 10.15.7,Chrome 121.0.0.0,1440x900,1440x900,,,,Alternating Serial Reaction Time (ASRT) task,5,Stroop ,311.40000000596046,,74,,,serial-reaction-time,66,109177,0.0-685.0-0.0,1,,[],,"[[1,1,1,1]]","[0,2]",R,1,1,63,1432,1,3,j,j,311.40000000596046,413,X
68,1707505389115,09/02/2024 19:03:09,1707505389045,1,09/02/2024 20:03:09,143617,34,task-vmxp,,34980278,tgfb6,9856743,,complete,,,computer,Desktop or Laptop,Mac OS 10.15.7,Chrome 121.0.0.0,1440x900,1440x900,,,,Alternating Serial Reaction Time (ASRT) task,5,Stroop ,317.90000000596046,,74,,,serial-reaction-time,67,110023,0.0-696.0-0.0,1,,[],,"[[1,1,1,1]]","[0,2]",R,1,1,64,1432,1,3,j,j,317.90000000596046,133,X
69,1707505389994,09/02/2024 19:03:09,1707505389909,1,09/02/2024 20:03:09,143617,34,task-vmxp,,34980278,tgfb6,9856743,,complete,,,computer,Desktop or Laptop,Mac OS 10.15.7,Chrome 121.0.0.0,1440x900,1440x900,,,,Alternating Serial Reaction Time (ASRT) task,5,Stroop ,340.40000000596046,,83,,,serial-reaction-time,68,110887,0.0-707.0-0.0,1,,[],,"[[1,1,1,1]]","[0,0]",R,1,1,65,1432,1,1,s,s,340.40000000596046,331,X
70,1707505390891,09/02/2024 19:03:10,1707505390822,1,09/02/2024 20:03:10,143617,34,task-vmxp,,34980278,tgfb6,9856743,,complete,,,computer,Desktop or Laptop,Mac OS 10.15.7,Chrome 121.0.0.0,1440x900,1440x900,,,,Alternating Serial Reaction Time (ASRT) task,5,Stroop ,386.29999999701977,,70,,,serial-reaction-time,69,111800,0.0-718.0-0.0,1,,[],,"[[1,1,1,1]]","[0,1]",R,1,1,66,1432,1,2,f,f,386.29999999701977,312,X
71,1707505391638,09/02/2024 19:03:11,1707505391571,1,09/02/2024 20:03:11,143617,34,task-vmxp,,34980278,tgfb6,9856743,,complete,,,computer,Desktop or Laptop,Mac OS 10.15.7,Chrome 121.0.0.0,1440x900,1440x900,,,,Alternating Serial Reaction Time (ASRT) task,5,Stroop ,221.79999999701977,,70,,,serial-reaction-time,70,112548,0.0-729.0-0.0,1,,[],,"[[1,1,1,1]]","[0,1]",R,1,1,67,1432,1,2,f,f,221.79999999701977,122,X
72,1707505392555,09/02/2024 19:03:12,1707505392477,1,09/02/2024 20:03:12,143617,34,task-vmxp,,34980278,tgfb6,9856743,,complete,,,computer,Desktop or Laptop,Mac OS 10.15.7,Chrome 121.0.0.0,1440x900,1440x900,,,,Alternating Serial Reaction Time (ASRT) task,5,Stroop ,383.90000000596046,,70,,,serial-reaction-time,71,113455,0.0-740.0-0.0,1,,[],,"[[1,1,1,1]]","[0,1]",R,1,1,68,1432,1,2,f,f,383.90000000596046,222,X
73,1707505393470,09/02/2024 19:03:13,1707505393400,1,09/02/2024 20:03:13,143617,34,task-vmxp,,34980278,tgfb6,9856743,,complete,,,computer,Desktop or Laptop,Mac OS 10.15.7,Chrome 121.0.0.0,1440x900,1440x900,,,,Alternating Serial Reaction Time (ASRT) task,5,Stroop ,400,,70,,,serial-reaction-time,72,114377,0.0-751.0-0.0,1,,[],,"[[1,1,1,1]]","[0,1]",R,1,1,69,1432,1,2,f,f,400,222,X
74,1707505394573,09/02/2024 19:03:14,1707505394504,1,09/02/2024 20:03:14,143617,34,task-vmxp,,34980278,tgfb6,9856743,,complete,,,computer,Desktop or Laptop,Mac OS 10.15.7,Chrome 121.0.0.0,1440x900,1440x900,,,,Alternating Serial Reaction Time (ASRT) task,5,Stroop ,580.1000000089407,,76,,,serial-reaction-time,73,115482,0.0-762.0-0.0,1,,[],,"[[1,1,1,1]]","[0,3]",R,1,1,70,1432,1,4,l,l,580.1000000089407,224,X
75,1707505395590,09/02/2024 19:03:15,1707505395519,1,09/02/2024 20:03:15,143617,34,task-vmxp,,34980278,tgfb6,9856743,,complete,,,computer,Desktop or Laptop,Mac OS 10.15.7,Chrome 121.0.0.0,1440x900,1440x900,,,,Alternating Serial Reaction Time (ASRT) task,5,Stroop ,490,,70,,,serial-reaction-time,74,116497,0.0-773.0-0.0,1,,[],,"[[1,1,1,1]]","[0,1]",R,1,1,71,1432,1,2,f,f,490,242,X
76,1707505396502,09/02/2024 19:03:16,1707505396436,1,09/02/2024 20:03:16,143617,34,task-vmxp,,34980278,tgfb6,9856743,,complete,,,computer,Desktop or Laptop,Mac OS 10.15.7,Chrome 121.0.0.0,1440x900,1440x900,,,,Alternating Serial Reaction Time (ASRT) task,5,Stroop ,390.40000000596046,,70,,,serial-reaction-time,75,117414,0.0-784.0-0.0,1,,[],,"[[1,1,1,1]]","[0,1]",R,1,1,72,1432,1,2,f,f,390.40000000596046,422,X
77,1707505397376,09/02/2024 19:03:17,1707505397304,1,09/02/2024 20:03:17,143617,34,task-vmxp,,34980278,tgfb6,9856743,,complete,,,computer,Desktop or Laptop,Mac OS 10.15.7,Chrome 121.0.0.0,1440x900,1440x900,,,,Alternating Serial Reaction Time (ASRT) task,5,Stroop ,341.40000000596046,,74,,,serial-reaction-time,76,118282,0.0-795.0-0.0,1,,[],,"[[1,1,1,1]]","[0,2]",R,1,1,73,1432,1,3,j,j,341.40000000596046,223,X
78,1707505398223,09/02/2024 19:03:18,1707505398151,1,09/02/2024 20:03:18,143617,34,task-vmxp,,34980278,tgfb6,9856743,,complete,,,computer,Desktop or Laptop,Mac OS 10.15.7,Chrome 121.0.0.0,1440x900,1440x900,,,,Alternating Serial Reaction Time (ASRT) task,5,Stroop ,322.79999999701977,,83,,,serial-reaction-time,77,119129,0.0-806.0-0.0,1,,[],,"[[1,1,1,1]]","[0,0]",R,1,1,74,1432,1,1,s,s,322.79999999701977,231,X
79,1707505399053,09/02/2024 19:03:19,1707505398984,1,09/02/2024 20:03:18,143617,34,task-vmxp,,34980278,tgfb6,9856743,,complete,,,computer,Desktop or Laptop,Mac OS 10.15.7,Chrome 121.0.0.0,1440x900,1440x900,,,,Alternating Serial Reaction Time (ASRT) task,5,Stroop ,305.8999999910593,,74,,,serial-reaction-time,78,119961,0.0-817.0-0.0,1,,[],,"[[1,1,1,1]]","[0,2]",R,1,1,75,1432,1,3,j,j,305.8999999910593,313,X
80,1707505399895,09/02/2024 19:03:19,1707505399823,1,09/02/2024 20:03:19,143617,34,task-vmxp,,34980278,tgfb6,9856743,,complete,,,computer,Desktop or Laptop,Mac OS 10.15.7,Chrome 121.0.0.0,1440x900,1440x900,,,,Alternating Serial Reaction Time (ASRT) task,5,Stroop ,315.90000000596046,,83,,,serial-reaction-time,79,120801,0.0-828.0-0.0,1,,[],,"[[1,1,1,1]]","[0,0]",R,1,1,76,1432,1,1,s,s,315.90000000596046,131,X
81,1707505400821,09/02/2024 19:03:20,1707505400742,1,09/02/2024 20:03:20,143617,34,task-vmxp,,34980278,tgfb6,9856743,,complete,,,computer,Desktop or Laptop,Mac OS 10.15.7,Chrome 121.0.0.0,1440x900,1440x900,,,,Alternating Serial Reaction Time (ASRT) task,5,Stroop ,390.29999999701977,,76,,,serial-reaction-time,80,121720,0.0-839.0-0.0,1,,[],,"[[1,1,1,1]]","[0,3]",R,1,1,77,1432,1,4,l,l,390.29999999701977,314,X
82,1707505401691,09/02/2024 19:03:21,1707505401620,1,09/02/2024 20:03:21,143617,34,task-vmxp,,34980278,tgfb6,9856743,,complete,,,computer,Desktop or Laptop,Mac OS 10.15.7,Chrome 121.0.0.0,1440x900,1440x900,,,,Alternating Serial Reaction Time (ASRT) task,5,Stroop ,353.70000000298023,,76,,,serial-reaction-time,81,122598,0.0-850.0-0.0,1,,[],,"[[1,1,1,1]]","[0,3]",R,1,1,78,1432,1,4,l,l,353.70000000298023,144,X
83,1707505402552,09/02/2024 19:03:22,1707505402457,1,09/02/2024 20:03:22,143617,34,task-vmxp,,34980278,tgfb6,9856743,,complete,,,computer,Desktop or Laptop,Mac OS 10.15.7,Chrome 121.0.0.0,1440x900,1440x900,,,,Alternating Serial Reaction Time (ASRT) task,5,Stroop ,310.8999999910593,,74,,,serial-reaction-time,82,123434,0.0-861.0-0.0,1,,[],,"[[1,1,1,1]]","[0,2]",R,1,1,79,1432,1,3,j,j,310.8999999910593,443,X
84,1707505403365,09/02/2024 19:03:23,1707505403300,1,09/02/2024 20:03:23,143617,34,task-vmxp,,34980278,tgfb6,9856743,,complete,,,computer,Desktop or Laptop,Mac OS 10.15.7,Chrome 121.0.0.0,1440x900,1440x900,,,,Alternating Serial Reaction Time (ASRT) task,5,Stroop ,319.5,,74,,,serial-reaction-time,83,124278,0.0-872.0-0.0,,,[],,"[[1,1,1,1]]","[0,1]",R,1,1,80,1432,1,2,f,j,319.5,432,X
85,1707505403673,09/02/2024 19:03:23,1707505403610,1,09/02/2024 20:03:23,143617,34,task-vmxp,,34980278,tgfb6,9856743,,complete,,,computer,Desktop or Laptop,Mac OS 10.15.7,Chrome 121.0.0.0,1440x900,1440x900,,,,Alternating Serial Reaction Time (ASRT) task,5,Stroop ,290.19999998807907,,70,,,serial-reaction-time,84,124588,0.0-873.0-0.0,1,,[],,"[[1,1,1,1]]","[0,1]",R,1,0,80,1432,1,2,f,f,609.6999999880791,432,X
86,1707505404526,09/02/2024 19:03:24,1707505404464,1,09/02/2024 20:03:24,143617,34,task-vmxp,,34980278,tgfb6,9856743,,complete,,,computer,Desktop or Laptop,Mac OS 10.15.7,Chrome 121.0.0.0,1440x900,1440x900,,,,Alternating Serial Reaction Time (ASRT) task,5,Stroop ,325.79999999701977,,83,,,serial-reaction-time,85,125442,0.0-883.0-0.0,1,,[],,"[[1,1,1,1]]","[0,0]",R,1,1,81,1432,1,1,s,s,325.79999999701977,321,X
87,1707505405438,09/02/2024 19:03:25,1707505405365,1,09/02/2024 20:03:25,143617,34,task-vmxp,,34980278,tgfb6,9856743,,complete,,,computer,Desktop or Laptop,Mac OS 10.15.7,Chrome 121.0.0.0,1440x900,1440x900,,,,Alternating Serial Reaction Time (ASRT) task,5,Stroop ,374.79999999701977,,83,,,serial-reaction-time,86,126343,0.0-894.0-0.0,1,,[],,"[[1,1,1,1]]","[0,0]",R,1,1,82,1432,1,1,s,s,374.79999999701977,211,X
88,1707505406051,09/02/2024 19:03:26,1707505405980,1,09/02/2024 20:03:25,143617,34,task-vmxp,,34980278,tgfb6,9856743,,complete,,,computer,Desktop or Laptop,Mac OS 10.15.7,Chrome 121.0.0.0,1440x900,1440x900,,,,Alternating Serial Reaction Time (ASRT) task,5,Stroop ,90.5,,83,,,serial-reaction-time,87,126958,0.0-905.0-0.0,1,,[],,"[[1,1,1,1]]","[0,0]",R,1,1,83,1432,1,1,s,s,90.5,111,X
89,1707505407016,09/02/2024 19:03:27,1707505406937,1,09/02/2024 20:03:26,143617,34,task-vmxp,,34980278,tgfb6,9856743,,complete,,,computer,Desktop or Laptop,Mac OS 10.15.7,Chrome 121.0.0.0,1440x900,1440x900,,,,Alternating Serial Reaction Time (ASRT) task,5,Stroop ,433.1000000089407,,70,,,serial-reaction-time,88,127915,0.0-916.0-0.0,1,,[],,"[[1,1,1,1]]","[0,1]",R,1,1,84,1432,1,2,f,f,433.1000000089407,112,X
90,1707505407903,09/02/2024 19:03:27,1707505407819,1,09/02/2024 20:03:27,143617,34,task-vmxp,,34980278,tgfb6,9856743,,complete,,,computer,Desktop or Laptop,Mac OS 10.15.7,Chrome 121.0.0.0,1440x900,1440x900,,,,Alternating Serial Reaction Time (ASRT) task,5,Stroop ,356.79999999701977,,76,,,serial-reaction-time,89,128796,0.0-927.0-0.0,1,,[],,"[[1,1,1,1]]","[0,3]",R,1,1,85,1432,1,4,l,l,356.79999999701977,124,X
91,1707505412919,09/02/2024 19:03:32,1707505412847,1,09/02/2024 20:03:32,143617,34,task-vmxp,,34980278,tgfb6,9856743,,complete,,,computer,Desktop or Laptop,Mac OS 10.15.7,Chrome 121.0.0.0,1440x900,1440x900,,,,Alternating Serial Reaction Time (ASRT) task,5,Stroop ,,<h2>End of block 1</h2><br><p>Your accuracy: 98%</p><p>Your average response time: 358 ms</p><br><p class='message'><strong>Please try to be faster.</strong></p>,,,,html-keyboard-response,90,133825,0.0-938.0,,,[],,,,,,,,,,,,,,,
92,1707505414045,09/02/2024 19:03:34,1707505413974,1,09/02/2024 20:03:33,143617,34,task-vmxp,,34980278,tgfb6,9856743,,complete,,,computer,Desktop or Laptop,Mac OS 10.15.7,Chrome 121.0.0.0,1440x900,1440x900,,,,Alternating Serial Reaction Time (ASRT) task,5,Stroop ,,"
    <p>Please place your fingers in this position on the keyboard:</p>
    <img src=/task/752107/5/asset/keyboard.bmp height='10%'>
    <h2>Please stay, the task will continue in a few seconds.<br><br>Please, when the first dog appears, continue the task immediately!</h2>",,,,html-keyboard-response,91,134952,0.0-939.0,,,[],,,,,,,,,,,,,,,
93,1707505414695,09/02/2024 19:03:34,1707505414614,1,09/02/2024 20:03:34,143617,34,task-vmxp,,34980278,tgfb6,9856743,,complete,,,computer,Desktop or Laptop,Mac OS 10.15.7,Chrome 121.0.0.0,1440x900,1440x900,,,,Alternating Serial Reaction Time (ASRT) task,5,Stroop ,619.3000000119209,,70,,,serial-reaction-time,92,135591,0.0-940.0-0.0,1,,[],,"[[1,1,1,1]]","[0,1]",R,2,1,1,1432,1,2,f,f,619.3000000119209,2,X
94,1707505415561,09/02/2024 19:03:35,1707505415491,1,09/02/2024 20:03:35,143617,34,task-vmxp,,34980278,tgfb6,9856743,,complete,,,computer,Desktop or Laptop,Mac OS 10.15.7,Chrome 121.0.0.0,1440x900,1440x900,,,,Alternating Serial Reaction Time (ASRT) task,5,Stroop ,354.09999999403954,,83,,,serial-reaction-time,93,136468,0.0-951.0-0.0,1,,[],,"[[1,1,1,1]]","[0,0]",R,2,1,2,1432,1,1,s,s,354.09999999403954,21,X
95,1707505416443,09/02/2024 19:03:36,1707505416372,1,09/02/2024 20:03:36,143617,34,task-vmxp,,34980278,tgfb6,9856743,,complete,,,computer,Desktop or Laptop,Mac OS 10.15.7,Chrome 121.0.0.0,1440x900,1440x900,,,,Alternating Serial Reaction Time (ASRT) task,5,Stroop ,355.80000001192093,,83,,,serial-reaction-time,94,137350,0.0-962.0-0.0,1,,[],,"[[1,1,1,1]]","[0,0]",R,2,1,3,1432,1,1,s,s,355.80000001192093,211,X
96,1707505417316,09/02/2024 19:03:37,1707505417234,1,09/02/2024 20:03:37,143617,34,task-vmxp,,34980278,tgfb6,9856743,,complete,,,computer,Desktop or Laptop,Mac OS 10.15.7,Chrome 121.0.0.0,1440x900,1440x900,,,,Alternating Serial Reaction Time (ASRT) task,5,Stroop ,337.90000000596046,,70,,,serial-reaction-time,95,138212,0.0-973.0-0.0,1,,[],,"[[1,1,1,1]]","[0,1]",R,2,1,4,1432,1,2,f,f,337.90000000596046,112,X
97,1707505418163,09/02/2024 19:03:38,1707505418083,1,09/02/2024 20:03:38,143617,34,task-vmxp,,34980278,tgfb6,9856743,,complete,,,computer,Desktop or Laptop,Mac OS 10.15.7,Chrome 121.0.0.0,1440x900,1440x900,,,,Alternating Serial Reaction Time (ASRT) task,5,Stroop ,328.79999999701977,,83,,,serial-reaction-time,96,139061,0.0-984.0-0.0,1,,[],,"[[1,1,1,1]]","[0,0]",R,2,1,5,1432,1,1,s,s,328.79999999701977,121,X
98,1707505419051,09/02/2024 19:03:39,1707505418982,1,09/02/2024 20:03:38,143617,34,task-vmxp,,34980278,tgfb6,9856743,,complete,,,computer,Desktop or Laptop,Mac OS 10.15.7,Chrome 121.0.0.0,1440x900,1440x900,,,,Alternating Serial Reaction Time (ASRT) task,5,Stroop ,375.79999999701977,,76,,,serial-reaction-time,97,139960,0.0-995.0-0.0,1,,[],,"[[1,1,1,1]]","[0,3]",R,2,1,6,1432,1,4,l,l,375.79999999701977,214,X
99,1707505419867,09/02/2024 19:03:39,1707505419800,1,09/02/2024 20:03:39,143617,34,task-vmxp,,34980278,tgfb6,9856743,,complete,,,computer,Desktop or Laptop,Mac OS 10.15.7,Chrome 121.0.0.0,1440x900,1440x900,,,,Alternating Serial Reaction Time (ASRT) task,5,Stroop ,294,,70,,,serial-reaction-time,98,140778,0.0-1006.0-0.0,1,,[],,"[[1,1,1,1]]","[0,1]",R,2,1,7,1432,1,2,f,f,294,142,X
100,1707505420701,09/02/2024 19:03:40,1707505420628,1,09/02/2024 20:03:40,143617,34,task-vmxp,,34980278,tgfb6,9856743,,complete,,,computer,Desktop or Laptop,Mac OS 10.15.7,Chrome 121.0.0.0,1440x900,1440x900,,,,Alternating Serial Reaction Time (ASRT) task,5,Stroop ,313.5,,74,,,serial-reaction-time,99,141606,0.0-1017.0-0.0,1,,[],,"[[1,1,1,1]]","[0,2]",R,2,1,8,1432,1,3,j,j,313.5,423,X
101,1707505421626,09/02/2024 19:03:41,1707505421547,1,09/02/2024 20:03:41,143617,34,task-vmxp,,34980278,tgfb6,9856743,,complete,,,computer,Desktop or Laptop,Mac OS 10.15.7,Chrome 121.0.0.0,1440x900,1440x900,,,,Alternating Serial Reaction Time (ASRT) task,5,Stroop ,406.90000000596046,,70,,,serial-reaction-time,100,142525,0.0-1028.0-0.0,1,,[],,"[[1,1,1,1]]","[0,1]",R,2,1,9,1432,1,2,f,f,406.90000000596046,232,X
102,1707505422438,09/02/2024 19:03:42,1707505422363,1,09/02/2024 20:03:42,143617,34,task-vmxp,,34980278,tgfb6,9856743,,complete,,,computer,Desktop or Laptop,Mac OS 10.15.7,Chrome 121.0.0.0,1440x900,1440x900,,,,Alternating Serial Reaction Time (ASRT) task,5,Stroop ,302.09999999403954,,83,,,serial-reaction-time,101,143341,0.0-1039.0-0.0,1,,[],,"[[1,1,1,1]]","[0,0]",R,2,1,10,1432,1,1,s,s,302.09999999403954,321,X
103,1707505423318,09/02/2024 19:03:43,1707505423220,1,09/02/2024 20:03:43,143617,34,task-vmxp,,34980278,tgfb6,9856743,,complete,,,computer,Desktop or Laptop,Mac OS 10.15.7,Chrome 121.0.0.0,1440x900,1440x900,,,,Alternating Serial Reaction Time (ASRT) task,5,Stroop ,347.70000000298023,,70,,,serial-reaction-time,102,144198,0.0-1050.0-0.0,1,,[],,"[[1,1,1,1]]","[0,1]",R,2,1,11,1432,1,2,f,f,347.70000000298023,212,X
104,1707505424154,09/02/2024 19:03:44,1707505424080,1,09/02/2024 20:03:44,143617,34,task-vmxp,,34980278,tgfb6,9856743,,complete,,,computer,Desktop or Laptop,Mac OS 10.15.7,Chrome 121.0.0.0,1440x900,1440x900,,,,Alternating Serial Reaction Time (ASRT) task,5,Stroop ,348.79999999701977,,83,,,serial-reaction-time,103,145058,0.0-1061.0-0.0,1,,[],,"[[1,1,1,1]]","[0,0]",R,2,1,12,1432,1,1,s,s,348.79999999701977,121,X
105,1707505425033,09/02/2024 19:03:45,1707505424956,1,09/02/2024 20:03:44,143617,34,task-vmxp,,34980278,tgfb6,9856743,,complete,,,computer,Desktop or Laptop,Mac OS 10.15.7,Chrome 121.0.0.0,1440x900,1440x900,,,,Alternating Serial Reaction Time (ASRT) task,5,Stroop ,365.29999999701977,,76,,,serial-reaction-time,104,145934,0.0-1072.0-0.0,,,[],,"[[1,1,1,1]]","[0,2]",R,2,1,13,1432,1,3,j,l,365.29999999701977,213,X
106,1707505425401,09/02/2024 19:03:45,1707505425229,1,09/02/2024 20:03:45,143617,34,task-vmxp,,34980278,tgfb6,9856743,,complete,,,computer,Desktop or Laptop,Mac OS 10.15.7,Chrome 121.0.0.0,1440x900,1440x900,,,,Alternating Serial Reaction Time (ASRT) task,5,Stroop ,262.70000000298023,,74,,,serial-reaction-time,105,146207,0.0-1073.0-0.0,1,,[],,"[[1,1,1,1]]","[0,2]",R,2,0,13,1432,1,3,j,j,628,213,X
107,1707505426117,09/02/2024 19:03:46,1707505426042,1,09/02/2024 20:03:46,143617,34,task-vmxp,,34980278,tgfb6,9856743,,complete,,,computer,Desktop or Laptop,Mac OS 10.15.7,Chrome 121.0.0.0,1440x900,1440x900,,,,Alternating Serial Reaction Time (ASRT) task,5,Stroop ,303.20000000298023,,74,,,serial-reaction-time,106,147020,0.0-1083.0-0.0,1,,[],,"[[1,1,1,1]]","[0,2]",R,2,1,14,1432,1,3,j,j,303.20000000298023,133,X
108,1707505426976,09/02/2024 19:03:46,1707505426855,1,09/02/2024 20:03:46,143617,34,task-vmxp,,34980278,tgfb6,9856743,,complete,,,computer,Desktop or Laptop,Mac OS 10.15.7,Chrome 121.0.0.0,1440x900,1440x900,,,,Alternating Serial Reaction Time (ASRT) task,5,Stroop ,290.59999999403954,,70,,,serial-reaction-time,107,147833,0.0-1094.0-0.0,1,,[],,"[[1,1,1,1]]","[0,1]",R,2,1,15,1432,1,2,f,f,290.59999999403954,332,X
109,1707505427844,09/02/2024 19:03:47,1707505427766,1,09/02/2024 20:03:47,143617,34,task-vmxp,,34980278,tgfb6,9856743,,complete,,,computer,Desktop or Laptop,Mac OS 10.15.7,Chrome 121.0.0.0,1440x900,1440x900,,,,Alternating Serial Reaction Time (ASRT) task,5,Stroop ,384.19999998807907,,83,,,serial-reaction-time,108,148743,0.0-1105.0-0.0,1,,[],,"[[1,1,1,1]]","[0,0]",R,2,1,16,1432,1,1,s,s,384.19999998807907,321,X
110,1707505428689,09/02/2024 19:03:48,1707505428617,1,09/02/2024 20:03:48,143617,34,task-vmxp,,34980278,tgfb6,9856743,,complete,,,computer,Desktop or Laptop,Mac OS 10.15.7,Chrome 121.0.0.0,1440x900,1440x900,,,,Alternating Serial Reaction Time (ASRT) task,5,Stroop ,327,,74,,,serial-reaction-time,109,149595,0.0-1116.0-0.0,1,,[],,"[[1,1,1,1]]","[0,2]",R,2,1,17,1432,1,3,j,j,327,213,X
111,1707505429605,09/02/2024 19:03:49,1707505429520,1,09/02/2024 20:03:49,143617,34,task-vmxp,,34980278,tgfb6,9856743,,complete,,,computer,Desktop or Laptop,Mac OS 10.15.7,Chrome 121.0.0.0,1440x900,1440x900,,,,Alternating Serial Reaction Time (ASRT) task,5,Stroop ,379.6000000089407,,76,,,serial-reaction-time,110,150497,0.0-1127.0-0.0,1,,[],,"[[1,1,1,1]]","[0,3]",R,2,1,18,1432,1,4,l,l,379.6000000089407,134,X
112,1707505430453,09/02/2024 19:03:50,1707505430381,1,09/02/2024 20:03:50,143617,34,task-vmxp,,34980278,tgfb6,9856743,,complete,,,computer,Desktop or Laptop,Mac OS 10.15.7,Chrome 121.0.0.0,1440x900,1440x900,,,,Alternating Serial Reaction Time (ASRT) task,5,Stroop ,336.29999999701977,,83,,,serial-reaction-time,111,151359,0.0-1138.0-0.0,1,,[],,"[[1,1,1,1]]","[0,0]",R,2,1,19,1432,1,1,s,s,336.29999999701977,341,X
113,1707505431289,09/02/2024 19:03:51,1707505431212,1,09/02/2024 20:03:51,143617,34,task-vmxp,,34980278,tgfb6,9856743,,complete,,,computer,Desktop or Laptop,Mac OS 10.15.7,Chrome 121.0.0.0,1440x900,1440x900,,,,Alternating Serial Reaction Time (ASRT) task,5,Stroop ,309.5,,76,,,serial-reaction-time,112,152190,0.0-1149.0-0.0,1,,[],,"[[1,1,1,1]]","[0,3]",R,2,1,20,1432,1,4,l,l,309.5,414,X
114,1707505432130,09/02/2024 19:03:52,1707505432042,1,09/02/2024 20:03:52,143617,34,task-vmxp,,34980278,tgfb6,9856743,,complete,,,computer,Desktop or Laptop,Mac OS 10.15.7,Chrome 121.0.0.0,1440x900,1440x900,,,,Alternating Serial Reaction Time (ASRT) task,5,Stroop ,306.70000000298023,,70,,,serial-reaction-time,113,153020,0.0-1160.0-0.0,1,,[],,"[[1,1,1,1]]","[0,1]",R,2,1,21,1432,1,2,f,f,306.70000000298023,142,X
115,1707505432923,09/02/2024 19:03:52,1707505432838,1,09/02/2024 20:03:52,143617,34,task-vmxp,,34980278,tgfb6,9856743,,complete,,,computer,Desktop or Laptop,Mac OS 10.15.7,Chrome 121.0.0.0,1440x900,1440x900,,,,Alternating Serial Reaction Time (ASRT) task,5,Stroop ,271,,74,,,serial-reaction-time,114,153816,0.0-1171.0-0.0,1,,[],,"[[1,1,1,1]]","[0,2]",R,2,1,22,1432,1,3,j,j,271,423,X
116,1707505433807,09/02/2024 19:03:53,1707505433727,1,09/02/2024 20:03:53,143617,34,task-vmxp,,34980278,tgfb6,9856743,,complete,,,computer,Desktop or Laptop,Mac OS 10.15.7,Chrome 121.0.0.0,1440x900,1440x900,,,,Alternating Serial Reaction Time (ASRT) task,5,Stroop ,362.6000000089407,,70,,,serial-reaction-time,115,154705,0.0-1182.0-0.0,1,,[],,"[[1,1,1,1]]","[0,1]",R,2,1,23,1432,1,2,f,f,362.6000000089407,232,X
117,1707505434653,09/02/2024 19:03:54,1707505434577,1,09/02/2024 20:03:54,143617,34,task-vmxp,,34980278,tgfb6,9856743,,complete,,,computer,Desktop or Laptop,Mac OS 10.15.7,Chrome 121.0.0.0,1440x900,1440x900,,,,Alternating Serial Reaction Time (ASRT) task,5,Stroop ,323.5,,83,,,serial-reaction-time,116,155555,0.0-1193.0-0.0,1,,[],,"[[1,1,1,1]]","[0,0]",R,2,1,24,1432,1,1,s,s,323.5,321,X
118,1707505435565,09/02/2024 19:03:55,1707505435475,1,09/02/2024 20:03:55,143617,34,task-vmxp,,34980278,tgfb6,9856743,,complete,,,computer,Desktop or Laptop,Mac OS 10.15.7,Chrome 121.0.0.0,1440x900,1440x900,,,,Alternating Serial Reaction Time (ASRT) task,5,Stroop ,371.1000000089407,,70,,,serial-reaction-time,117,156452,0.0-1204.0-0.0,1,,[],,"[[1,1,1,1]]","[0,1]",R,2,1,25,1432,1,2,f,f,371.1000000089407,212,X
119,1707505436446,09/02/2024 19:03:56,1707505436341,1,09/02/2024 20:03:56,143617,34,task-vmxp,,34980278,tgfb6,9856743,,complete,,,computer,Desktop or Laptop,Mac OS 10.15.7,Chrome 121.0.0.0,1440x900,1440x900,,,,Alternating Serial Reaction Time (ASRT) task,5,Stroop ,346,,83,,,serial-reaction-time,118,157319,0.0-1215.0-0.0,1,,[],,"[[1,1,1,1]]","[0,0]",R,2,1,26,1432,1,1,s,s,346,121,X
120,1707505437309,09/02/2024 19:03:57,1707505437217,1,09/02/2024 20:03:57,143617,34,task-vmxp,,34980278,tgfb6,9856743,,complete,,,computer,Desktop or Laptop,Mac OS 10.15.7,Chrome 121.0.0.0,1440x900,1440x900,,,,Alternating Serial Reaction Time (ASRT) task,5,Stroop ,350.5,,83,,,serial-reaction-time,119,158195,0.0-1226.0-0.0,1,,[],,"[[1,1,1,1]]","[0,0]",R,2,1,27,1432,1,1,s,s,350.5,211,X
121,1707505438194,09/02/2024 19:03:58,1707505438094,1,09/02/2024 20:03:58,143617,34,task-vmxp,,34980278,tgfb6,9856743,,complete,,,computer,Desktop or Laptop,Mac OS 10.15.7,Chrome 121.0.0.0,1440x900,1440x900,,,,Alternating Serial Reaction Time (ASRT) task,5,Stroop ,350.3999999910593,,70,,,serial-reaction-time,120,159072,0.0-1237.0-0.0,1,,[],,"[[1,1,1,1]]","[0,1]",R,2,1,28,1432,1,2,f,f,350.3999999910593,112,X
122,1707505439026,09/02/2024 19:03:59,1707505438937,1,09/02/2024 20:03:58,143617,34,task-vmxp,,34980278,tgfb6,9856743,,complete,,,computer,Desktop or Laptop,Mac OS 10.15.7,Chrome 121.0.0.0,1440x900,1440x900,,,,Alternating Serial Reaction Time (ASRT) task,5,Stroop ,315.59999999403954,,76,,,serial-reaction-time,121,159915,0.0-1248.0-0.0,1,,[],,"[[1,1,1,1]]","[0,3]",R,2,1,29,1432,1,4,l,l,315.59999999403954,124,X
123,1707505439862,09/02/2024 19:03:59,1707505439789,1,09/02/2024 20:03:59,143617,34,task-vmxp,,34980278,tgfb6,9856743,,complete,,,computer,Desktop or Laptop,Mac OS 10.15.7,Chrome 121.0.0.0,1440x900,1440x900,,,,Alternating Serial Reaction Time (ASRT) task,5,Stroop ,325.59999999403954,,83,,,serial-reaction-time,122,160767,0.0-1259.0-0.0,1,,[],,"[[1,1,1,1]]","[0,0]",R,2,1,30,1432,1,1,s,s,325.59999999403954,241,X
124,1707505440735,09/02/2024 19:04:00,1707505440646,1,09/02/2024 20:04:00,143617,34,task-vmxp,,34980278,tgfb6,9856743,,complete,,,computer,Desktop or Laptop,Mac OS 10.15.7,Chrome 121.0.0.0,1440x900,1440x900,,,,Alternating Serial Reaction Time (ASRT) task,5,Stroop ,331.6000000089407,,70,,,serial-reaction-time,123,161624,0.0-1270.0-0.0,1,,[],,"[[1,1,1,1]]","[0,1]",R,2,1,31,1432,1,2,f,f,331.6000000089407,412,X
125,1707505441590,09/02/2024 19:04:01,1707505441500,1,09/02/2024 20:04:01,143617,34,task-vmxp,,34980278,tgfb6,9856743,,complete,,,computer,Desktop or Laptop,Mac OS 10.15.7,Chrome 121.0.0.0,1440x900,1440x900,,,,Alternating Serial Reaction Time (ASRT) task,5,Stroop ,326.19999998807907,,76,,,serial-reaction-time,124,162478,0.0-1281.0-0.0,1,,[],,"[[1,1,1,1]]","[0,3]",R,2,1,32,1432,1,4,l,l,326.19999998807907,124,X
126,1707505442501,09/02/2024 19:04:02,1707505442398,1,09/02/2024 20:04:02,143617,34,task-vmxp,,34980278,tgfb6,9856743,,complete,,,computer,Desktop or Laptop,Mac OS 10.15.7,Chrome 121.0.0.0,1440x900,1440x900,,,,Alternating Serial Reaction Time (ASRT) task,5,Stroop ,370.29999999701977,,83,,,serial-reaction-time,125,163376,0.0-1292.0-0.0,,,[],,"[[1,1,1,1]]","[0,1]",R,2,1,33,1432,1,2,f,s,370.29999999701977,242,X
127,1707505442563,09/02/2024 19:04:02,1707505442437,1,09/02/2024 20:04:02,143617,34,task-vmxp,,34980278,tgfb6,9856743,,complete,,,computer,Desktop or Laptop,Mac OS 10.15.7,Chrome 121.0.0.0,1440x900,1440x900,,,,Alternating Serial Reaction Time (ASRT) task,5,Stroop ,23.400000005960464,,70,,,serial-reaction-time,126,163415,0.0-1293.0-0.0,1,,[],,"[[1,1,1,1]]","[0,1]",R,2,0,33,1432,1,2,f,f,393.70000000298023,242,X
128,1707505443390,09/02/2024 19:04:03,1707505443311,1,09/02/2024 20:04:03,143617,34,task-vmxp,,34980278,tgfb6,9856743,,complete,,,computer,Desktop or Laptop,Mac OS 10.15.7,Chrome 121.0.0.0,1440x900,1440x900,,,,Alternating Serial Reaction Time (ASRT) task,5,Stroop ,350,,70,,,serial-reaction-time,127,164289,0.0-1303.0-0.0,1,,[],,"[[1,1,1,1]]","[0,1]",R,2,1,34,1432,1,2,f,f,350,422,X
129,1707505444315,09/02/2024 19:04:04,1707505444234,1,09/02/2024 20:04:04,143617,34,task-vmxp,,34980278,tgfb6,9856743,,complete,,,computer,Desktop or Laptop,Mac OS 10.15.7,Chrome 121.0.0.0,1440x900,1440x900,,,,Alternating Serial Reaction Time (ASRT) task,5,Stroop ,397.70000000298023,,74,,,serial-reaction-time,128,165212,0.0-1314.0-0.0,1,,[],,"[[1,1,1,1]]","[0,2]",R,2,1,35,1432,1,3,j,j,397.70000000298023,223,X
130,1707505445228,09/02/2024 19:04:05,1707505445146,1,09/02/2024 20:04:05,143617,34,task-vmxp,,34980278,tgfb6,9856743,,complete,,,computer,Desktop or Laptop,Mac OS 10.15.7,Chrome 121.0.0.0,1440x900,1440x900,,,,Alternating Serial Reaction Time (ASRT) task,5,Stroop ,386,,70,,,serial-reaction-time,129,166124,0.0-1325.0-0.0,,,[],,"[[1,1,1,1]]","[0,2]",R,2,1,36,1432,1,3,j,f,386,233,X
131,1707505445288,09/02/2024 19:04:05,1707505445177,1,09/02/2024 20:04:05,143617,34,task-vmxp,,34980278,tgfb6,9856743,,complete,,,computer,Desktop or Laptop,Mac OS 10.15.7,Chrome 121.0.0.0,1440x900,1440x900,,,,Alternating Serial Reaction Time (ASRT) task,5,Stroop ,16.5,,74,,,serial-reaction-time,130,166155,0.0-1326.0-0.0,1,,[],,"[[1,1,1,1]]","[0,2]",R,2,0,36,1432,1,3,j,j,402.5,233,X
132,1707505446182,09/02/2024 19:04:06,1707505446102,1,09/02/2024 20:04:06,143617,34,task-vmxp,,34980278,tgfb6,9856743,,complete,,,computer,Desktop or Laptop,Mac OS 10.15.7,Chrome 121.0.0.0,1440x900,1440x900,,,,Alternating Serial Reaction Time (ASRT) task,5,Stroop ,412.90000000596046,,76,,,serial-reaction-time,131,167080,0.0-1336.0-0.0,1,,[],,"[[1,1,1,1]]","[0,3]",R,2,1,37,1432,1,4,l,l,412.90000000596046,334,X
133,1707505447036,09/02/2024 19:04:07,1707505446962,1,09/02/2024 20:04:06,143617,34,task-vmxp,,34980278,tgfb6,9856743,,complete,,,computer,Desktop or Laptop,Mac OS 10.15.7,Chrome 121.0.0.0,1440x900,1440x900,,,,Alternating Serial Reaction Time (ASRT) task,5,Stroop ,340.8999999910593,,83,,,serial-reaction-time,132,167940,0.0-1347.0-0.0,1,,[],,"[[1,1,1,1]]","[0,0]",R,2,1,38,1432,1,1,s,s,340.8999999910593,341,X
134,1707505447913,09/02/2024 19:04:07,1707505447832,1,09/02/2024 20:04:07,143617,34,task-vmxp,,34980278,tgfb6,9856743,,complete,,,computer,Desktop or Laptop,Mac OS 10.15.7,Chrome 121.0.0.0,1440x900,1440x900,,,,Alternating Serial Reaction Time (ASRT) task,5,Stroop ,351.19999998807907,,76,,,serial-reaction-time,133,168810,0.0-1358.0-0.0,1,,[],,"[[1,1,1,1]]","[0,3]",R,2,1,39,1432,1,4,l,l,351.19999998807907,414,X
135,1707505448766,09/02/2024 19:04:08,1707505448681,1,09/02/2024 20:04:08,143617,34,task-vmxp,,34980278,tgfb6,9856743,,complete,,,computer,Desktop or Laptop,Mac OS 10.15.7,Chrome 121.0.0.0,1440x900,1440x900,,,,Alternating Serial Reaction Time (ASRT) task,5,Stroop ,330.1000000089407,,74,,,serial-reaction-time,134,169659,0.0-1369.0-0.0,1,,[],,"[[1,1,1,1]]","[0,2]",R,2,1,40,1432,1,3,j,j,330.1000000089407,143,X
136,1707505449678,09/02/2024 19:04:09,1707505449600,1,09/02/2024 20:04:09,143617,34,task-vmxp,,34980278,tgfb6,9856743,,complete,,,computer,Desktop or Laptop,Mac OS 10.15.7,Chrome 121.0.0.0,1440x900,1440x900,,,,Alternating Serial Reaction Time (ASRT) task,5,Stroop ,400.5,,76,,,serial-reaction-time,135,170578,0.0-1380.0-0.0,1,,[],,"[[1,1,1,1]]","[0,3]",R,2,1,41,1432,1,4,l,l,400.5,434,X
137,1707505450547,09/02/2024 19:04:10,1707505450470,1,09/02/2024 20:04:10,143617,34,task-vmxp,,34980278,tgfb6,9856743,,complete,,,computer,Desktop or Laptop,Mac OS 10.15.7,Chrome 121.0.0.0,1440x900,1440x900,,,,Alternating Serial Reaction Time (ASRT) task,5,Stroop ,345.6000000089407,,76,,,serial-reaction-time,136,171448,0.0-1391.0-0.0,1,,[],,"[[1,1,1,1]]","[0,3]",R,2,1,42,1432,1,4,l,l,345.6000000089407,344,X
138,1707505451414,09/02/2024 19:04:11,1707505451322,1,09/02/2024 20:04:11,143617,34,task-vmxp,,34980278,tgfb6,9856743,,complete,,,computer,Desktop or Laptop,Mac OS 10.15.7,Chrome 121.0.0.0,1440x900,1440x900,,,,Alternating Serial Reaction Time (ASRT) task,5,Stroop ,325.90000000596046,,76,,,serial-reaction-time,137,172300,0.0-1402.0-0.0,1,,[],,"[[1,1,1,1]]","[0,3]",R,2,1,43,1432,1,4,l,l,325.90000000596046,444,X
139,1707505452370,09/02/2024 19:04:12,1707505452285,1,09/02/2024 20:04:12,143617,34,task-vmxp,,34980278,tgfb6,9856743,,complete,,,computer,Desktop or Laptop,Mac OS 10.15.7,Chrome 121.0.0.0,1440x900,1440x900,,,,Alternating Serial Reaction Time (ASRT) task,5,Stroop ,436,,83,,,serial-reaction-time,138,173263,0.0-1413.0-0.0,1,,[],,"[[1,1,1,1]]","[0,0]",R,2,1,44,1432,1,1,s,s,436,441,X
140,1707505453437,09/02/2024 19:04:13,1707505453344,1,09/02/2024 20:04:13,143617,34,task-vmxp,,34980278,tgfb6,9856743,,complete,,,computer,Desktop or Laptop,Mac OS 10.15.7,Chrome 121.0.0.0,1440x900,1440x900,,,,Alternating Serial Reaction Time (ASRT) task,5,Stroop ,534.2999999970198,,76,,,serial-reaction-time,139,174322,0.0-1424.0-0.0,1,,[],,"[[1,1,1,1]]","[0,3]",R,2,1,45,1432,1,4,l,l,534.2999999970198,414,X
141,1707505454360,09/02/2024 19:04:14,1707505454272,1,09/02/2024 20:04:14,143617,34,task-vmxp,,34980278,tgfb6,9856743,,complete,,,computer,Desktop or Laptop,Mac OS 10.15.7,Chrome 121.0.0.0,1440x900,1440x900,,,,Alternating Serial Reaction Time (ASRT) task,5,Stroop ,404.80000001192093,,74,,,serial-reaction-time,140,175250,0.0-1435.0-0.0,1,,[],,"[[1,1,1,1]]","[0,2]",R,2,1,46,1432,1,3,j,j,404.80000001192093,143,X
142,1707505455326,09/02/2024 19:04:15,1707505455244,1,09/02/2024 20:04:15,143617,34,task-vmxp,,34980278,tgfb6,9856743,,complete,,,computer,Desktop or Laptop,Mac OS 10.15.7,Chrome 121.0.0.0,1440x900,1440x900,,,,Alternating Serial Reaction Time (ASRT) task,5,Stroop ,446.70000000298023,,83,,,serial-reaction-time,141,176222,0.0-1446.0-0.0,1,,[],,"[[1,1,1,1]]","[0,0]",R,2,1,47,1432,1,1,s,s,446.70000000298023,431,X
143,1707505456199,09/02/2024 19:04:16,1707505456112,1,09/02/2024 20:04:16,143617,34,task-vmxp,,34980278,tgfb6,9856743,,complete,,,computer,Desktop or Laptop,Mac OS 10.15.7,Chrome 121.0.0.0,1440x900,1440x900,,,,Alternating Serial Reaction Time (ASRT) task,5,Stroop ,343.29999999701977,,76,,,serial-reaction-time,142,177090,0.0-1457.0-0.0,1,,[],,"[[1,1,1,1]]","[0,3]",R,2,1,48,1432,1,4,l,l,343.29999999701977,314,X
144,1707505457034,09/02/2024 19:04:17,1707505456944,1,09/02/2024 20:04:16,143617,34,task-vmxp,,34980278,tgfb6,9856743,,complete,,,computer,Desktop or Laptop,Mac OS 10.15.7,Chrome 121.0.0.0,1440x900,1440x900,,,,Alternating Serial Reaction Time (ASRT) task,5,Stroop ,305.8999999910593,,74,,,serial-reaction-time,143,177922,0.0-1468.0-0.0,1,,[],,"[[1,1,1,1]]","[0,2]",R,2,1,49,1432,1,3,j,j,305.8999999910593,143,X
145,1707505457862,09/02/2024 19:04:17,1707505457777,1,09/02/2024 20:04:17,143617,34,task-vmxp,,34980278,tgfb6,9856743,,complete,,,computer,Desktop or Laptop,Mac OS 10.15.7,Chrome 121.0.0.0,1440x900,1440x900,,,,Alternating Serial Reaction Time (ASRT) task,5,Stroop ,307.70000000298023,,70,,,serial-reaction-time,144,178755,0.0-1479.0-0.0,1,,[],,"[[1,1,1,1]]","[0,1]",R,2,1,50,1432,1,2,f,f,307.70000000298023,432,X
146,1707505458730,09/02/2024 19:04:18,1707505458658,1,09/02/2024 20:04:18,143617,34,task-vmxp,,34980278,tgfb6,9856743,,complete,,,computer,Desktop or Laptop,Mac OS 10.15.7,Chrome 121.0.0.0,1440x900,1440x900,,,,Alternating Serial Reaction Time (ASRT) task,5,Stroop ,355.90000000596046,,76,,,serial-reaction-time,145,179636,0.0-1490.0-0.0,1,,[],,"[[1,1,1,1]]","[0,3]",R,2,1,51,1432,1,4,l,l,355.90000000596046,324,X
147,1707505459607,09/02/2024 19:04:19,1707505459529,1,09/02/2024 20:04:19,143617,34,task-vmxp,,34980278,tgfb6,9856743,,complete,,,computer,Desktop or Laptop,Mac OS 10.15.7,Chrome 121.0.0.0,1440x900,1440x900,,,,Alternating Serial Reaction Time (ASRT) task,5,Stroop ,346.90000000596046,,74,,,serial-reaction-time,146,180507,0.0-1501.0-0.0,1,,[],,"[[1,1,1,1]]","[0,2]",R,2,1,52,1432,1,3,j,j,346.90000000596046,243,X
148,1707505460513,09/02/2024 19:04:20,1707505460410,1,09/02/2024 20:04:20,143617,34,task-vmxp,,34980278,tgfb6,9856743,,complete,,,computer,Desktop or Laptop,Mac OS 10.15.7,Chrome 121.0.0.0,1440x900,1440x900,,,,Alternating Serial Reaction Time (ASRT) task,5,Stroop ,358.5,,83,,,serial-reaction-time,147,181387,0.0-1512.0-0.0,1,,[],,"[[1,1,1,1]]","[0,0]",R,2,1,53,1432,1,1,s,s,358.5,431,X
149,1707505461339,09/02/2024 19:04:21,1707505461222,1,09/02/2024 20:04:21,143617,34,task-vmxp,,34980278,tgfb6,9856743,,complete,,,computer,Desktop or Laptop,Mac OS 10.15.7,Chrome 121.0.0.0,1440x900,1440x900,,,,Alternating Serial Reaction Time (ASRT) task,5,Stroop ,284.70000000298023,,76,,,serial-reaction-time,148,182200,0.0-1523.0-0.0,1,,[],,"[[1,1,1,1]]","[0,3]",R,2,1,54,1432,1,4,l,l,284.70000000298023,314,X
150,1707505462153,09/02/2024 19:04:22,1707505462059,1,09/02/2024 20:04:22,143617,34,task-vmxp,,34980278,tgfb6,9856743,,complete,,,computer,Desktop or Laptop,Mac OS 10.15.7,Chrome 121.0.0.0,1440x900,1440x900,,,,Alternating Serial Reaction Time (ASRT) task,5,Stroop ,311.6000000089407,,76,,,serial-reaction-time,149,183037,0.0-1534.0-0.0,1,,[],,"[[1,1,1,1]]","[0,3]",R,2,1,55,1432,1,4,l,l,311.6000000089407,144,X
151,1707505463089,09/02/2024 19:04:23,1707505462978,1,09/02/2024 20:04:22,143617,34,task-vmxp,,34980278,tgfb6,9856743,,complete,,,computer,Desktop or Laptop,Mac OS 10.15.7,Chrome 121.0.0.0,1440x900,1440x900,,,,Alternating Serial Reaction Time (ASRT) task,5,Stroop ,391.70000000298023,,83,,,serial-reaction-time,150,183956,0.0-1545.0-0.0,1,,[],,"[[1,1,1,1]]","[0,0]",R,2,1,56,1432,1,1,s,s,391.70000000298023,441,X
152,1707505463960,09/02/2024 19:04:23,1707505463820,1,09/02/2024 20:04:23,143617,34,task-vmxp,,34980278,tgfb6,9856743,,complete,,,computer,Desktop or Laptop,Mac OS 10.15.7,Chrome 121.0.0.0,1440x900,1440x900,,,,Alternating Serial Reaction Time (ASRT) task,5,Stroop ,317.1000000089407,,74,,,serial-reaction-time,151,184798,0.0-1556.0-0.0,1,,[],,"[[1,1,1,1]]","[0,2]",R,2,1,57,1432,1,3,j,j,317.1000000089407,413,X
153,1707505464771,09/02/2024 19:04:24,1707505464684,1,09/02/2024 20:04:24,143617,34,task-vmxp,,34980278,tgfb6,9856743,,complete,,,computer,Desktop or Laptop,Mac OS 10.15.7,Chrome 121.0.0.0,1440x900,1440x900,,,,Alternating Serial Reaction Time (ASRT) task,5,Stroop ,338.59999999403954,,76,,,serial-reaction-time,152,185662,0.0-1567.0-0.0,1,,[],,"[[1,1,1,1]]","[0,3]",R,2,1,58,1432,1,4,l,l,338.59999999403954,134,X
154,1707505465576,09/02/2024 19:04:25,1707505465482,1,09/02/2024 20:04:25,143617,34,task-vmxp,,34980278,tgfb6,9856743,,complete,,,computer,Desktop or Laptop,Mac OS 10.15.7,Chrome 121.0.0.0,1440x900,1440x900,,,,Alternating Serial Reaction Time (ASRT) task,5,Stroop ,272,,70,,,serial-reaction-time,153,186460,0.0-1578.0-0.0,1,,[],,"[[1,1,1,1]]","[0,1]",R,2,1,59,1432,1,2,f,f,272,342,X
155,1707505466612,09/02/2024 19:04:26,1707505466321,1,09/02/2024 20:04:26,143617,34,task-vmxp,,34980278,tgfb6,9856743,,complete,,,computer,Desktop or Laptop,Mac OS 10.15.7,Chrome 121.0.0.0,1440x900,1440x900,,,,Alternating Serial Reaction Time (ASRT) task,5,Stroop ,314.90000000596046,,70,,,serial-reaction-time,154,187299,0.0-1589.0-0.0,1,,[],,"[[1,1,1,1]]","[0,1]",R,2,1,60,1432,1,2,f,f,314.90000000596046,422,X
156,1707505467251,09/02/2024 19:04:27,1707505467152,1,09/02/2024 20:04:27,143617,34,task-vmxp,,34980278,tgfb6,9856743,,complete,,,computer,Desktop or Laptop,Mac OS 10.15.7,Chrome 121.0.0.0,1440x900,1440x900,,,,Alternating Serial Reaction Time (ASRT) task,5,Stroop ,307.19999998807907,,74,,,serial-reaction-time,155,188130,0.0-1600.0-0.0,1,,[],,"[[1,1,1,1]]","[0,2]",R,2,1,61,1432,1,3,j,j,307.19999998807907,223,X
157,1707505468090,09/02/2024 19:04:28,1707505467994,1,09/02/2024 20:04:27,143617,34,task-vmxp,,34980278,tgfb6,9856743,,complete,,,computer,Desktop or Laptop,Mac OS 10.15.7,Chrome 121.0.0.0,1440x900,1440x900,,,,Alternating Serial Reaction Time (ASRT) task,5,Stroop ,315.5,,74,,,serial-reaction-time,156,188972,0.0-1611.0-0.0,1,,[],,"[[1,1,1,1]]","[0,2]",R,2,1,62,1432,1,3,j,j,315.5,233,X
158,1707505468925,09/02/2024 19:04:28,1707505468837,1,09/02/2024 20:04:28,143617,34,task-vmxp,,34980278,tgfb6,9856743,,complete,,,computer,Desktop or Laptop,Mac OS 10.15.7,Chrome 121.0.0.0,1440x900,1440x900,,,,Alternating Serial Reaction Time (ASRT) task,5,Stroop ,317.29999999701977,,76,,,serial-reaction-time,157,189814,0.0-1622.0-0.0,1,,[],,"[[1,1,1,1]]","[0,3]",R,2,1,63,1432,1,4,l,l,317.29999999701977,334,X
159,1707505469736,09/02/2024 19:04:29,1707505469641,1,09/02/2024 20:04:29,143617,34,task-vmxp,,34980278,tgfb6,9856743,,complete,,,computer,Desktop or Laptop,Mac OS 10.15.7,Chrome 121.0.0.0,1440x900,1440x900,,,,Alternating Serial Reaction Time (ASRT) task,5,Stroop ,282.40000000596046,,83,,,serial-reaction-time,158,190619,0.0-1633.0-0.0,1,,[],,"[[1,1,1,1]]","[0,0]",R,2,1,64,1432,1,1,s,s,282.40000000596046,341,X
160,1707505470628,09/02/2024 19:04:30,1707505470535,1,09/02/2024 20:04:30,143617,34,task-vmxp,,34980278,tgfb6,9856743,,complete,,,computer,Desktop or Laptop,Mac OS 10.15.7,Chrome 121.0.0.0,1440x900,1440x900,,,,Alternating Serial Reaction Time (ASRT) task,5,Stroop ,368.8999999910593,,83,,,serial-reaction-time,159,191513,0.0-1644.0-0.0,1,,[],,"[[1,1,1,1]]","[0,0]",R,2,1,65,1432,1,1,s,s,368.8999999910593,411,X
161,1707505471479,09/02/2024 19:04:31,1707505471391,1,09/02/2024 20:04:31,143617,34,task-vmxp,,34980278,tgfb6,9856743,,complete,,,computer,Desktop or Laptop,Mac OS 10.15.7,Chrome 121.0.0.0,1440x900,1440x900,,,,Alternating Serial Reaction Time (ASRT) task,5,Stroop ,331.29999999701977,,70,,,serial-reaction-time,160,192368,0.0-1655.0-0.0,1,,[],,"[[1,1,1,1]]","[0,1]",R,2,1,66,1432,1,2,f,f,331.29999999701977,112,X
162,1707505472310,09/02/2024 19:04:32,1707505472217,1,09/02/2024 20:04:32,143617,34,task-vmxp,,34980278,tgfb6,9856743,,complete,,,computer,Desktop or Laptop,Mac OS 10.15.7,Chrome 121.0.0.0,1440x900,1440x900,,,,Alternating Serial Reaction Time (ASRT) task,5,Stroop ,300.1000000089407,,70,,,serial-reaction-time,161,193194,0.0-1666.0-0.0,1,,[],,"[[1,1,1,1]]","[0,1]",R,2,1,67,1432,1,2,f,f,300.1000000089407,122,X
163,1707505473153,09/02/2024 19:04:33,1707505473056,1,09/02/2024 20:04:33,143617,34,task-vmxp,,34980278,tgfb6,9856743,,complete,,,computer,Desktop or Laptop,Mac OS 10.15.7,Chrome 121.0.0.0,1440x900,1440x900,,,,Alternating Serial Reaction Time (ASRT) task,5,Stroop ,313.20000000298023,,76,,,serial-reaction-time,162,194034,0.0-1677.0-0.0,1,,[],,"[[1,1,1,1]]","[0,3]",R,2,1,68,1432,1,4,l,l,313.20000000298023,224,X
164,1707505473970,09/02/2024 19:04:33,1707505473868,1,09/02/2024 20:04:33,143617,34,task-vmxp,,34980278,tgfb6,9856743,,complete,,,computer,Desktop or Laptop,Mac OS 10.15.7,Chrome 121.0.0.0,1440x900,1440x900,,,,Alternating Serial Reaction Time (ASRT) task,5,Stroop ,287,,83,,,serial-reaction-time,163,194846,0.0-1688.0-0.0,1,,[],,"[[1,1,1,1]]","[0,0]",R,2,1,69,1432,1,1,s,s,287,241,X
165,1707505474828,09/02/2024 19:04:34,1707505474739,1,09/02/2024 20:04:34,143617,34,task-vmxp,,34980278,tgfb6,9856743,,complete,,,computer,Desktop or Laptop,Mac OS 10.15.7,Chrome 121.0.0.0,1440x900,1440x900,,,,Alternating Serial Reaction Time (ASRT) task,5,Stroop ,345.5,,83,,,serial-reaction-time,164,195716,0.0-1699.0-0.0,1,,[],,"[[1,1,1,1]]","[0,0]",R,2,1,70,1432,1,1,s,s,345.5,411,X
166,1707505475665,09/02/2024 19:04:35,1707505475571,1,09/02/2024 20:04:35,143617,34,task-vmxp,,34980278,tgfb6,9856743,,complete,,,computer,Desktop or Laptop,Mac OS 10.15.7,Chrome 121.0.0.0,1440x900,1440x900,,,,Alternating Serial Reaction Time (ASRT) task,5,Stroop ,309,,74,,,serial-reaction-time,165,196549,0.0-1710.0-0.0,1,,[],,"[[1,1,1,1]]","[0,2]",R,2,1,71,1432,1,3,j,j,309,113,X
167,1707505476485,09/02/2024 19:04:36,1707505476393,1,09/02/2024 20:04:36,143617,34,task-vmxp,,34980278,tgfb6,9856743,,complete,,,computer,Desktop or Laptop,Mac OS 10.15.7,Chrome 121.0.0.0,1440x900,1440x900,,,,Alternating Serial Reaction Time (ASRT) task,5,Stroop ,299.59999999403954,,70,,,serial-reaction-time,166,197371,0.0-1721.0-0.0,1,,[],,"[[1,1,1,1]]","[0,1]",R,2,1,72,1432,1,2,f,f,299.59999999403954,132,X
168,1707505477324,09/02/2024 19:04:37,1707505477244,1,09/02/2024 20:04:37,143617,34,task-vmxp,,34980278,tgfb6,9856743,,complete,,,computer,Desktop or Laptop,Mac OS 10.15.7,Chrome 121.0.0.0,1440x900,1440x900,,,,Alternating Serial Reaction Time (ASRT) task,5,Stroop ,324.09999999403954,,76,,,serial-reaction-time,167,198222,0.0-1732.0-0.0,1,,[],,"[[1,1,1,1]]","[0,3]",R,2,1,73,1432,1,4,l,l,324.09999999403954,324,X
169,1707505478173,09/02/2024 19:04:38,1707505478082,1,09/02/2024 20:04:38,143617,34,task-vmxp,,34980278,tgfb6,9856743,,complete,,,computer,Desktop or Laptop,Mac OS 10.15.7,Chrome 121.0.0.0,1440x900,1440x900,,,,Alternating Serial Reaction Time (ASRT) task,5,Stroop ,311.59999999403954,,70,,,serial-reaction-time,168,199060,0.0-1743.0-0.0,1,,[],,"[[1,1,1,1]]","[0,1]",R,2,1,74,1432,1,2,f,f,311.59999999403954,242,X
170,1707505479104,09/02/2024 19:04:39,1707505478995,1,09/02/2024 20:04:38,143617,34,task-vmxp,,34980278,tgfb6,9856743,,complete,,,computer,Desktop or Laptop,Mac OS 10.15.7,Chrome 121.0.0.0,1440x900,1440x900,,,,Alternating Serial Reaction Time (ASRT) task,5,Stroop ,388.09999999403954,,70,,,serial-reaction-time,169,199973,0.0-1754.0-0.0,1,,[],,"[[1,1,1,1]]","[0,1]",R,2,1,75,1432,1,2,f,f,388.09999999403954,422,X
171,1707505479910,09/02/2024 19:04:39,1707505479830,1,09/02/2024 20:04:39,143617,34,task-vmxp,,34980278,tgfb6,9856743,,complete,,,computer,Desktop or Laptop,Mac OS 10.15.7,Chrome 121.0.0.0,1440x900,1440x900,,,,Alternating Serial Reaction Time (ASRT) task,5,Stroop ,312.20000000298023,,76,,,serial-reaction-time,170,200808,0.0-1765.0-0.0,1,,[],,"[[1,1,1,1]]","[0,3]",R,2,1,76,1432,1,4,l,l,312.20000000298023,224,X
172,1707505480738,09/02/2024 19:04:40,1707505480653,1,09/02/2024 20:04:40,143617,34,task-vmxp,,34980278,tgfb6,9856743,,complete,,,computer,Desktop or Laptop,Mac OS 10.15.7,Chrome 121.0.0.0,1440x900,1440x900,,,,Alternating Serial Reaction Time (ASRT) task,5,Stroop ,305,,74,,,serial-reaction-time,171,201631,0.0-1776.0-0.0,1,,[],,"[[1,1,1,1]]","[0,2]",R,2,1,77,1432,1,3,j,j,305,243,X
173,1707505481636,09/02/2024 19:04:41,1707505481530,1,09/02/2024 20:04:41,143617,34,task-vmxp,,34980278,tgfb6,9856743,,complete,,,computer,Desktop or Laptop,Mac OS 10.15.7,Chrome 121.0.0.0,1440x900,1440x900,,,,Alternating Serial Reaction Time (ASRT) task,5,Stroop ,350.40000000596046,,76,,,serial-reaction-time,172,202508,0.0-1787.0-0.0,1,,[],,"[[1,1,1,1]]","[0,3]",R,2,1,78,1432,1,4,l,l,350.40000000596046,434,X
174,1707505482527,09/02/2024 19:04:42,1707505482435,1,09/02/2024 20:04:42,143617,34,task-vmxp,,34980278,tgfb6,9856743,,complete,,,computer,Desktop or Laptop,Mac OS 10.15.7,Chrome 121.0.0.0,1440x900,1440x900,,,,Alternating Serial Reaction Time (ASRT) task,5,Stroop ,382.29999999701977,,70,,,serial-reaction-time,173,203413,0.0-1798.0-0.0,1,,[],,"[[1,1,1,1]]","[0,1]",R,2,1,79,1432,1,2,f,f,382.29999999701977,342,X
175,1707505483350,09/02/2024 19:04:43,1707505483263,1,09/02/2024 20:04:43,143617,34,task-vmxp,,34980278,tgfb6,9856743,,complete,,,computer,Desktop or Laptop,Mac OS 10.15.7,Chrome 121.0.0.0,1440x900,1440x900,,,,Alternating Serial Reaction Time (ASRT) task,5,Stroop ,303.5,,74,,,serial-reaction-time,174,204241,0.0-1809.0-0.0,1,,[],,"[[1,1,1,1]]","[0,2]",R,2,1,80,1432,1,3,j,j,303.5,423,X
176,1707505484222,09/02/2024 19:04:44,1707505484108,1,09/02/2024 20:04:44,143617,34,task-vmxp,,34980278,tgfb6,9856743,,complete,,,computer,Desktop or Laptop,Mac OS 10.15.7,Chrome 121.0.0.0,1440x900,1440x900,,,,Alternating Serial Reaction Time (ASRT) task,5,Stroop ,320.70000000298023,,83,,,serial-reaction-time,175,205086,0.0-1820.0-0.0,1,,[],,"[[1,1,1,1]]","[0,0]",R,2,1,81,1432,1,1,s,s,320.70000000298023,231,X
177,1707505485091,09/02/2024 19:04:45,1707505484988,1,09/02/2024 20:04:44,143617,34,task-vmxp,,34980278,tgfb6,9856743,,complete,,,computer,Desktop or Laptop,Mac OS 10.15.7,Chrome 121.0.0.0,1440x900,1440x900,,,,Alternating Serial Reaction Time (ASRT) task,5,Stroop ,354.20000000298023,,74,,,serial-reaction-time,176,205966,0.0-1831.0-0.0,1,,[],,"[[1,1,1,1]]","[0,2]",R,2,1,82,1432,1,3,j,j,354.20000000298023,313,X
178,1707505485907,09/02/2024 19:04:45,1707505485820,1,09/02/2024 20:04:45,143617,34,task-vmxp,,34980278,tgfb6,9856743,,complete,,,computer,Desktop or Laptop,Mac OS 10.15.7,Chrome 121.0.0.0,1440x900,1440x900,,,,Alternating Serial Reaction Time (ASRT) task,5,Stroop ,306.3999999910593,,76,,,serial-reaction-time,177,206798,0.0-1842.0-0.0,1,,[],,"[[1,1,1,1]]","[0,3]",R,2,1,83,1432,1,4,l,l,306.3999999910593,134,X
179,1707505486715,09/02/2024 19:04:46,1707505486622,1,09/02/2024 20:04:46,143617,34,task-vmxp,,34980278,tgfb6,9856743,,complete,,,computer,Desktop or Laptop,Mac OS 10.15.7,Chrome 121.0.0.0,1440x900,1440x900,,,,Alternating Serial Reaction Time (ASRT) task,5,Stroop ,279.8999999910593,,74,,,serial-reaction-time,178,207600,0.0-1853.0-0.0,1,,[],,"[[1,1,1,1]]","[0,2]",R,2,1,84,1432,1,3,j,j,279.8999999910593,343,X
180,1707505487537,09/02/2024 19:04:47,1707505487446,1,09/02/2024 20:04:47,143617,34,task-vmxp,,34980278,tgfb6,9856743,,complete,,,computer,Desktop or Laptop,Mac OS 10.15.7,Chrome 121.0.0.0,1440x900,1440x900,,,,Alternating Serial Reaction Time (ASRT) task,5,Stroop ,301.70000000298023,,83,,,serial-reaction-time,179,208424,0.0-1864.0-0.0,1,,[],,"[[1,1,1,1]]","[0,0]",R,2,1,85,1432,1,1,s,s,301.70000000298023,431,X
181,1707505492556,09/02/2024 19:04:52,1707505492477,1,09/02/2024 20:04:52,143617,34,task-vmxp,,34980278,tgfb6,9856743,,complete,,,computer,Desktop or Laptop,Mac OS 10.15.7,Chrome 121.0.0.0,1440x900,1440x900,,,,Alternating Serial Reaction Time (ASRT) task,5,Stroop ,,<h2>End of block 2</h2><br><p>Your accuracy: 96%</p><p>Your average response time: 342 ms</p><br><p class='message'><strong>Nice job!</strong></p>,,,,html-keyboard-response,180,213455,0.0-1875.0,,,[],,,,,,,,,,,,,,,
182,1707505498965,09/02/2024 19:04:58,1707505498889,1,09/02/2024 20:04:58,143617,34,task-vmxp,,34980278,tgfb6,9856743,,complete,,,computer,Desktop or Laptop,Mac OS 10.15.7,Chrome 121.0.0.0,1440x900,1440x900,,,,Alternating Serial Reaction Time (ASRT) task,5,Stroop ,6390.800000011921,"<h2>The real task begins now.</h2>
        <p>If you are ready, press <strong>any</strong> key to start the task!</p>",32,,,html-keyboard-response,181,219867,0.0-1876.0,,,[],,,,,,,,,,,,,,,
183,1707505499562,09/02/2024 19:04:59,1707505499466,1,09/02/2024 20:04:59,143617,34,task-vmxp,,34980278,tgfb6,9856743,,complete,,,computer,Desktop or Laptop,Mac OS 10.15.7,Chrome 121.0.0.0,1440x900,1440x900,,,,Alternating Serial Reaction Time (ASRT) task,5,Stroop ,554.2999999970198,,83,,,serial-reaction-time,182,220444,0.0-1877.0-0.0,1,,[],,"[[1,1,1,1]]","[0,0]",R,1,1,1,1432,0,1,s,s,554.2999999970198,1,X
184,1707505500453,09/02/2024 19:05:00,1707505500359,1,09/02/2024 20:05:00,143617,34,task-vmxp,,34980278,tgfb6,9856743,,complete,,,computer,Desktop or Laptop,Mac OS 10.15.7,Chrome 121.0.0.0,1440x900,1440x900,,,,Alternating Serial Reaction Time (ASRT) task,5,Stroop ,367.19999998807907,,83,,,serial-reaction-time,183,221336,0.0-1888.0-0.0,1,,[],,"[[1,1,1,1]]","[0,0]",P,1,1,2,1432,0,1,s,s,367.19999998807907,11,X
185,1707505501322,09/02/2024 19:05:01,1707505501191,1,09/02/2024 20:05:01,143617,34,task-vmxp,,34980278,tgfb6,9856743,,complete,,,computer,Desktop or Laptop,Mac OS 10.15.7,Chrome 121.0.0.0,1440x900,1440x900,,,,Alternating Serial Reaction Time (ASRT) task,5,Stroop ,308.70000000298023,,74,,,serial-reaction-time,184,222169,0.0-1899.0-0.0,,,[],,"[[1,1,1,1]]","[0,1]",R,1,1,3,1432,0,2,f,j,308.70000000298023,112,L
186,1707505501569,09/02/2024 19:05:01,1707505501496,1,09/02/2024 20:05:01,143617,34,task-vmxp,,34980278,tgfb6,9856743,,complete,,,computer,Desktop or Laptop,Mac OS 10.15.7,Chrome 121.0.0.0,1440x900,1440x900,,,,Alternating Serial Reaction Time (ASRT) task,5,Stroop ,284.1000000089407,,70,,,serial-reaction-time,185,222474,0.0-1900.0-0.0,1,,[],,"[[1,1,1,1]]","[0,1]",R,1,0,3,1432,0,2,f,f,592.8000000119209,112,L
187,1707505502411,09/02/2024 19:05:02,1707505502334,1,09/02/2024 20:05:02,143617,34,task-vmxp,,34980278,tgfb6,9856743,,complete,,,computer,Desktop or Laptop,Mac OS 10.15.7,Chrome 121.0.0.0,1440x900,1440x900,,,,Alternating Serial Reaction Time (ASRT) task,5,Stroop ,313,,76,,,serial-reaction-time,186,223312,0.0-1910.0-0.0,1,,[],,"[[1,1,1,1]]","[0,3]",P,1,1,4,1432,0,4,l,l,313,124,H
188,1707505503270,09/02/2024 19:05:03,1707505503180,1,09/02/2024 20:05:03,143617,34,task-vmxp,,34980278,tgfb6,9856743,,complete,,,computer,Desktop or Laptop,Mac OS 10.15.7,Chrome 121.0.0.0,1440x900,1440x900,,,,Alternating Serial Reaction Time (ASRT) task,5,Stroop ,318.5,,76,,,serial-reaction-time,187,224158,0.0-1921.0-0.0,1,,[],,"[[1,1,1,1]]","[0,3]",R,1,1,5,1432,0,4,l,l,318.5,244,L
189,1707505504110,09/02/2024 19:05:04,1707505504024,1,09/02/2024 20:05:04,143617,34,task-vmxp,,34980278,tgfb6,9856743,,complete,,,computer,Desktop or Laptop,Mac OS 10.15.7,Chrome 121.0.0.0,1440x900,1440x900,,,,Alternating Serial Reaction Time (ASRT) task,5,Stroop ,317.70000000298023,,74,,,serial-reaction-time,188,225002,0.0-1932.0-0.0,1,,[],,"[[1,1,1,1]]","[0,2]",P,1,1,6,1432,0,3,j,j,317.70000000298023,443,H
190,1707505504942,09/02/2024 19:05:04,1707505504857,1,09/02/2024 20:05:04,143617,34,task-vmxp,,34980278,tgfb6,9856743,,complete,,,computer,Desktop or Laptop,Mac OS 10.15.7,Chrome 121.0.0.0,1440x900,1440x900,,,,Alternating Serial Reaction Time (ASRT) task,5,Stroop ,310.20000000298023,,83,,,serial-reaction-time,189,225835,0.0-1943.0-0.0,1,,[],,"[[1,1,1,1]]","[0,0]",R,1,1,7,1432,0,1,s,s,310.20000000298023,431,L
191,1707505505788,09/02/2024 19:05:05,1707505505703,1,09/02/2024 20:05:05,143617,34,task-vmxp,,34980278,tgfb6,9856743,,complete,,,computer,Desktop or Laptop,Mac OS 10.15.7,Chrome 121.0.0.0,1440x900,1440x900,,,,Alternating Serial Reaction Time (ASRT) task,5,Stroop ,322.70000000298023,,70,,,serial-reaction-time,190,226681,0.0-1954.0-0.0,1,,[],,"[[1,1,1,1]]","[0,1]",P,1,1,8,1432,0,2,f,f,322.70000000298023,312,H
192,1707505506750,09/02/2024 19:05:06,1707505506624,1,09/02/2024 20:05:06,143617,34,task-vmxp,,34980278,tgfb6,9856743,,complete,,,computer,Desktop or Laptop,Mac OS 10.15.7,Chrome 121.0.0.0,1440x900,1440x900,,,,Alternating Serial Reaction Time (ASRT) task,5,Stroop ,399.09999999403954,,76,,,serial-reaction-time,191,227602,0.0-1965.0-0.0,1,,[],,"[[1,1,1,1]]","[0,3]",R,1,1,9,1432,0,4,l,l,399.09999999403954,124,H
193,1707505507640,09/02/2024 19:05:07,1707505507554,1,09/02/2024 20:05:07,143617,34,task-vmxp,,34980278,tgfb6,9856743,,complete,,,computer,Desktop or Laptop,Mac OS 10.15.7,Chrome 121.0.0.0,1440x900,1440x900,,,,Alternating Serial Reaction Time (ASRT) task,5,Stroop ,405,,83,,,serial-reaction-time,192,228531,0.0-1976.0-0.0,1,,[],,"[[1,1,1,1]]","[0,0]",P,1,1,10,1432,0,1,s,s,405,241,H
194,1707505508465,09/02/2024 19:05:08,1707505508379,1,09/02/2024 20:05:08,143617,34,task-vmxp,,34980278,tgfb6,9856743,,complete,,,computer,Desktop or Laptop,Mac OS 10.15.7,Chrome 121.0.0.0,1440x900,1440x900,,,,Alternating Serial Reaction Time (ASRT) task,5,Stroop ,302.5,,74,,,serial-reaction-time,193,229357,0.0-1987.0-0.0,1,,[],,"[[1,1,1,1]]","[0,2]",R,1,1,11,1432,0,3,j,j,302.5,413,H
195,1707505509295,09/02/2024 19:05:09,1707505509191,1,09/02/2024 20:05:09,143617,34,task-vmxp,,34980278,tgfb6,9856743,,complete,,,computer,Desktop or Laptop,Mac OS 10.15.7,Chrome 121.0.0.0,1440x900,1440x900,,,,Alternating Serial Reaction Time (ASRT) task,5,Stroop ,291.09999999403954,,76,,,serial-reaction-time,194,230169,0.0-1998.0-0.0,1,,[],,"[[1,1,1,1]]","[0,3]",P,1,1,12,1432,0,4,l,l,291.09999999403954,134,H
196,1707505510142,09/02/2024 19:05:10,1707505510058,1,09/02/2024 20:05:10,143617,34,task-vmxp,,34980278,tgfb6,9856743,,complete,,,computer,Desktop or Laptop,Mac OS 10.15.7,Chrome 121.0.0.0,1440x900,1440x900,,,,Alternating Serial Reaction Time (ASRT) task,5,Stroop ,338.90000000596046,,83,,,serial-reaction-time,195,231036,0.0-2009.0-0.0,1,,[],,"[[1,1,1,1]]","[0,0]",R,1,1,13,1432,0,1,s,s,338.90000000596046,341,L
197,1707505510991,09/02/2024 19:05:10,1707505510882,1,09/02/2024 20:05:10,143617,34,task-vmxp,,34980278,tgfb6,9856743,,complete,,,computer,Desktop or Laptop,Mac OS 10.15.7,Chrome 121.0.0.0,1440x900,1440x900,,,,Alternating Serial Reaction Time (ASRT) task,5,Stroop ,302.29999999701977,,74,,,serial-reaction-time,196,231860,0.0-2020.0-0.0,1,,[],,"[[1,1,1,1]]","[0,2]",P,1,1,14,1432,0,3,j,j,302.29999999701977,413,H
198,1707505511778,09/02/2024 19:05:11,1707505511699,1,09/02/2024 20:05:11,143617,34,task-vmxp,,34980278,tgfb6,9856743,,complete,,,computer,Desktop or Laptop,Mac OS 10.15.7,Chrome 121.0.0.0,1440x900,1440x900,,,,Alternating Serial Reaction Time (ASRT) task,5,Stroop ,294.29999999701977,,76,,,serial-reaction-time,197,232677,0.0-2031.0-0.0,1,,[],,"[[1,1,1,1]]","[0,3]",R,1,1,15,1432,0,4,l,l,294.29999999701977,134,H
199,1707505512659,09/02/2024 19:05:12,1707505512562,1,09/02/2024 20:05:12,143617,34,task-vmxp,,34980278,tgfb6,9856743,,complete,,,computer,Desktop or Laptop,Mac OS 10.15.7,Chrome 121.0.0.0,1440x900,1440x900,,,,Alternating Serial Reaction Time (ASRT) task,5,Stroop ,339.79999999701977,,70,,,serial-reaction-time,198,233540,0.0-2042.0-0.0,1,,[],,"[[1,1,1,1]]","[0,1]",P,1,1,16,1432,0,2,f,f,339.79999999701977,342,H
200,1707505513506,09/02/2024 19:05:13,1707505513419,1,09/02/2024 20:05:13,143617,34,task-vmxp,,34980278,tgfb6,9856743,,complete,,,computer,Desktop or Laptop,Mac OS 10.15.7,Chrome 121.0.0.0,1440x900,1440x900,,,,Alternating Serial Reaction Time (ASRT) task,5,Stroop ,331.59999999403954,,76,,,serial-reaction-time,199,234397,0.0-2053.0-0.0,1,,[],,"[[1,1,1,1]]","[0,3]",R,1,1,17,1432,0,4,l,l,331.59999999403954,424,T
201,1707505514355,09/02/2024 19:05:14,1707505514268,1,09/02/2024 20:05:14,143617,34,task-vmxp,,34980278,tgfb6,9856743,,complete,,,computer,Desktop or Laptop,Mac OS 10.15.7,Chrome 121.0.0.0,1440x900,1440x900,,,,Alternating Serial Reaction Time (ASRT) task,5,Stroop ,324.09999999403954,,83,,,serial-reaction-time,200,235246,0.0-2064.0-0.0,1,,[],,"[[1,1,1,1]]","[0,0]",P,1,1,18,1432,0,1,s,s,324.09999999403954,241,H
202,1707505515210,09/02/2024 19:05:15,1707505515089,1,09/02/2024 20:05:15,143617,34,task-vmxp,,34980278,tgfb6,9856743,,complete,,,computer,Desktop or Laptop,Mac OS 10.15.7,Chrome 121.0.0.0,1440x900,1440x900,,,,Alternating Serial Reaction Time (ASRT) task,5,Stroop ,295.80000001192093,,74,,,serial-reaction-time,201,236067,0.0-2075.0-0.0,1,,[],,"[[1,1,1,1]]","[0,2]",R,1,1,19,1432,0,3,j,j,295.80000001192093,413,H
203,1707505515967,09/02/2024 19:05:15,1707505515873,1,09/02/2024 20:05:15,143617,34,task-vmxp,,34980278,tgfb6,9856743,,complete,,,computer,Desktop or Laptop,Mac OS 10.15.7,Chrome 121.0.0.0,1440x900,1440x900,,,,Alternating Serial Reaction Time (ASRT) task,5,Stroop ,259.8999999910593,,76,,,serial-reaction-time,202,236851,0.0-2086.0-0.0,1,,[],,"[[1,1,1,1]]","[0,3]",P,1,1,20,1432,0,4,l,l,259.8999999910593,134,H
204,1707505516791,09/02/2024 19:05:16,1707505516671,1,09/02/2024 20:05:16,143617,34,task-vmxp,,34980278,tgfb6,9856743,,complete,,,computer,Desktop or Laptop,Mac OS 10.15.7,Chrome 121.0.0.0,1440x900,1440x900,,,,Alternating Serial Reaction Time (ASRT) task,5,Stroop ,275.20000000298023,,83,,,serial-reaction-time,203,237648,0.0-2097.0-0.0,1,,[],,"[[1,1,1,1]]","[0,0]",R,1,1,21,1432,0,1,s,s,275.20000000298023,341,L
205,1707505517551,09/02/2024 19:05:17,1707505517470,1,09/02/2024 20:05:17,143617,34,task-vmxp,,34980278,tgfb6,9856743,,complete,,,computer,Desktop or Laptop,Mac OS 10.15.7,Chrome 121.0.0.0,1440x900,1440x900,,,,Alternating Serial Reaction Time (ASRT) task,5,Stroop ,273,,74,,,serial-reaction-time,204,238448,0.0-2108.0-0.0,1,,[],,"[[1,1,1,1]]","[0,2]",P,1,1,22,1432,0,3,j,j,273,413,H
206,1707505518393,09/02/2024 19:05:18,1707505518305,1,09/02/2024 20:05:18,143617,34,task-vmxp,,34980278,tgfb6,9856743,,complete,,,computer,Desktop or Laptop,Mac OS 10.15.7,Chrome 121.0.0.0,1440x900,1440x900,,,,Alternating Serial Reaction Time (ASRT) task,5,Stroop ,312.30000001192093,,74,,,serial-reaction-time,205,239283,0.0-2119.0-0.0,1,,[],,"[[1,1,1,1]]","[0,2]",R,1,1,23,1432,0,3,j,j,312.30000001192093,133,L
207,1707505519197,09/02/2024 19:05:19,1707505519120,1,09/02/2024 20:05:19,143617,34,task-vmxp,,34980278,tgfb6,9856743,,complete,,,computer,Desktop or Laptop,Mac OS 10.15.7,Chrome 121.0.0.0,1440x900,1440x900,,,,Alternating Serial Reaction Time (ASRT) task,5,Stroop ,289.59999999403954,,70,,,serial-reaction-time,206,240098,0.0-2130.0-0.0,1,,[],,"[[1,1,1,1]]","[0,1]",P,1,1,24,1432,0,2,f,f,289.59999999403954,332,H
208,1707505520037,09/02/2024 19:05:20,1707505519944,1,09/02/2024 20:05:19,143617,34,task-vmxp,,34980278,tgfb6,9856743,,complete,,,computer,Desktop or Laptop,Mac OS 10.15.7,Chrome 121.0.0.0,1440x900,1440x900,,,,Alternating Serial Reaction Time (ASRT) task,5,Stroop ,298.90000000596046,,70,,,serial-reaction-time,207,240922,0.0-2141.0-0.0,1,,[],,"[[1,1,1,1]]","[0,1]",R,1,1,25,1432,0,2,f,f,298.90000000596046,322,H
209,1707505520881,09/02/2024 19:05:20,1707505520795,1,09/02/2024 20:05:20,143617,34,task-vmxp,,34980278,tgfb6,9856743,,complete,,,computer,Desktop or Laptop,Mac OS 10.15.7,Chrome 121.0.0.0,1440x900,1440x900,,,,Alternating Serial Reaction Time (ASRT) task,5,Stroop ,325.5,,83,,,serial-reaction-time,208,241773,0.0-2152.0-0.0,1,,[],,"[[1,1,1,1]]","[0,0]",P,1,1,26,1432,0,1,s,s,325.5,221,H
210,1707505521707,09/02/2024 19:05:21,1707505521628,1,09/02/2024 20:05:21,143617,34,task-vmxp,,34980278,tgfb6,9856743,,complete,,,computer,Desktop or Laptop,Mac OS 10.15.7,Chrome 121.0.0.0,1440x900,1440x900,,,,Alternating Serial Reaction Time (ASRT) task,5,Stroop ,309.5,,74,,,serial-reaction-time,209,242606,0.0-2163.0-0.0,1,,[],,"[[1,1,1,1]]","[0,2]",R,1,1,27,1432,0,3,j,j,309.5,213,L
211,1707505522728,09/02/2024 19:05:22,1707505522642,1,09/02/2024 20:05:22,143617,34,task-vmxp,,34980278,tgfb6,9856743,,complete,,,computer,Desktop or Laptop,Mac OS 10.15.7,Chrome 121.0.0.0,1440x900,1440x900,,,,Alternating Serial Reaction Time (ASRT) task,5,Stroop ,487.90000000596046,,76,,,serial-reaction-time,210,243620,0.0-2174.0-0.0,1,,[],,"[[1,1,1,1]]","[0,3]",P,1,1,28,1432,0,4,l,l,487.90000000596046,134,H
212,1707505523551,09/02/2024 19:05:23,1707505523465,1,09/02/2024 20:05:23,143617,34,task-vmxp,,34980278,tgfb6,9856743,,complete,,,computer,Desktop or Laptop,Mac OS 10.15.7,Chrome 121.0.0.0,1440x900,1440x900,,,,Alternating Serial Reaction Time (ASRT) task,5,Stroop ,297.70000000298023,,83,,,serial-reaction-time,211,244443,0.0-2185.0-0.0,1,,[],,"[[1,1,1,1]]","[0,0]",R,1,1,29,1432,0,1,s,s,297.70000000298023,341,L
213,1707505524364,09/02/2024 19:05:24,1707505524278,1,09/02/2024 20:05:24,143617,34,task-vmxp,,34980278,tgfb6,9856743,,complete,,,computer,Desktop or Laptop,Mac OS 10.15.7,Chrome 121.0.0.0,1440x900,1440x900,,,,Alternating Serial Reaction Time (ASRT) task,5,Stroop ,290.29999999701977,,74,,,serial-reaction-time,212,245256,0.0-2196.0-0.0,1,,[],,"[[1,1,1,1]]","[0,2]",P,1,1,30,1432,0,3,j,j,290.29999999701977,413,H
214,1707505525203,09/02/2024 19:05:25,1707505525121,1,09/02/2024 20:05:25,143617,34,task-vmxp,,34980278,tgfb6,9856743,,complete,,,computer,Desktop or Laptop,Mac OS 10.15.7,Chrome 121.0.0.0,1440x900,1440x900,,,,Alternating Serial Reaction Time (ASRT) task,5,Stroop ,320.59999999403954,,74,,,serial-reaction-time,213,246099,0.0-2207.0-0.0,1,,[],,"[[1,1,1,1]]","[0,2]",R,1,1,31,1432,0,3,j,j,320.59999999403954,133,L
215,1707505526014,09/02/2024 19:05:26,1707505525929,1,09/02/2024 20:05:25,143617,34,task-vmxp,,34980278,tgfb6,9856743,,complete,,,computer,Desktop or Laptop,Mac OS 10.15.7,Chrome 121.0.0.0,1440x900,1440x900,,,,Alternating Serial Reaction Time (ASRT) task,5,Stroop ,286.90000000596046,,70,,,serial-reaction-time,214,246907,0.0-2218.0-0.0,1,,[],,"[[1,1,1,1]]","[0,1]",P,1,1,32,1432,0,2,f,f,286.90000000596046,332,H
216,1707505526867,09/02/2024 19:05:26,1707505526782,1,09/02/2024 20:05:26,143617,34,task-vmxp,,34980278,tgfb6,9856743,,complete,,,computer,Desktop or Laptop,Mac OS 10.15.7,Chrome 121.0.0.0,1440x900,1440x900,,,,Alternating Serial Reaction Time (ASRT) task,5,Stroop ,328,,83,,,serial-reaction-time,215,247760,0.0-2229.0-0.0,1,,[],,"[[1,1,1,1]]","[0,0]",R,1,1,33,1432,0,1,s,s,328,321,L
217,1707505527744,09/02/2024 19:05:27,1707505527658,1,09/02/2024 20:05:27,143617,34,task-vmxp,,34980278,tgfb6,9856743,,complete,,,computer,Desktop or Laptop,Mac OS 10.15.7,Chrome 121.0.0.0,1440x900,1440x900,,,,Alternating Serial Reaction Time (ASRT) task,5,Stroop ,349.59999999403954,,83,,,serial-reaction-time,216,248636,0.0-2240.0-0.0,1,,[],,"[[1,1,1,1]]","[0,0]",P,1,1,34,1432,0,1,s,s,349.59999999403954,211,H
218,1707505528578,09/02/2024 19:05:28,1707505528497,1,09/02/2024 20:05:28,143617,34,task-vmxp,,34980278,tgfb6,9856743,,complete,,,computer,Desktop or Laptop,Mac OS 10.15.7,Chrome 121.0.0.0,1440x900,1440x900,,,,Alternating Serial Reaction Time (ASRT) task,5,Stroop ,311.5,,83,,,serial-reaction-time,217,249475,0.0-2251.0-0.0,1,,[],,"[[1,1,1,1]]","[0,0]",R,1,1,35,1432,0,1,s,s,311.5,111,R
219,1707505529425,09/02/2024 19:05:29,1707505529322,1,09/02/2024 20:05:29,143617,34,task-vmxp,,34980278,tgfb6,9856743,,complete,,,computer,Desktop or Laptop,Mac OS 10.15.7,Chrome 121.0.0.0,1440x900,1440x900,,,,Alternating Serial Reaction Time (ASRT) task,5,Stroop ,298.8999999910593,,76,,,serial-reaction-time,218,250300,0.0-2262.0-0.0,1,,[],,"[[1,1,1,1]]","[0,3]",P,1,1,36,1432,0,4,l,l,298.8999999910593,114,H
220,1707505530252,09/02/2024 19:05:30,1707505530171,1,09/02/2024 20:05:30,143617,34,task-vmxp,,34980278,tgfb6,9856743,,complete,,,computer,Desktop or Laptop,Mac OS 10.15.7,Chrome 121.0.0.0,1440x900,1440x900,,,,Alternating Serial Reaction Time (ASRT) task,5,Stroop ,327.20000000298023,,76,,,serial-reaction-time,219,251149,0.0-2273.0-0.0,1,,[],,"[[1,1,1,1]]","[0,3]",R,1,1,37,1432,0,4,l,l,327.20000000298023,144,H
221,1707505531104,09/02/2024 19:05:31,1707505531005,1,09/02/2024 20:05:31,143617,34,task-vmxp,,34980278,tgfb6,9856743,,complete,,,computer,Desktop or Laptop,Mac OS 10.15.7,Chrome 121.0.0.0,1440x900,1440x900,,,,Alternating Serial Reaction Time (ASRT) task,5,Stroop ,309.29999999701977,,76,,,serial-reaction-time,220,251983,0.0-2284.0-0.0,,,[],,"[[1,1,1,1]]","[0,2]",P,1,1,38,1432,0,3,j,l,309.29999999701977,443,H
222,1707505531165,09/02/2024 19:05:31,1707505531043,1,09/02/2024 20:05:31,143617,34,task-vmxp,,34980278,tgfb6,9856743,,complete,,,computer,Desktop or Laptop,Mac OS 10.15.7,Chrome 121.0.0.0,1440x900,1440x900,,,,Alternating Serial Reaction Time (ASRT) task,5,Stroop ,21.700000002980232,,74,,,serial-reaction-time,221,252020,0.0-2285.0-0.0,1,,[],,"[[1,1,1,1]]","[0,2]",P,1,0,38,1432,0,3,j,j,331,443,H
223,1707505532018,09/02/2024 19:05:32,1707505531929,1,09/02/2024 20:05:31,143617,34,task-vmxp,,34980278,tgfb6,9856743,,complete,,,computer,Desktop or Laptop,Mac OS 10.15.7,Chrome 121.0.0.0,1440x900,1440x900,,,,Alternating Serial Reaction Time (ASRT) task,5,Stroop ,360.29999999701977,,76,,,serial-reaction-time,222,252906,0.0-2295.0-0.0,1,,[],,"[[1,1,1,1]]","[0,3]",R,1,1,39,1432,0,4,l,l,360.29999999701977,434,T
224,1707505532857,09/02/2024 19:05:32,1707505532755,1,09/02/2024 20:05:32,143617,34,task-vmxp,,34980278,tgfb6,9856743,,complete,,,computer,Desktop or Laptop,Mac OS 10.15.7,Chrome 121.0.0.0,1440x900,1440x900,,,,Alternating Serial Reaction Time (ASRT) task,5,Stroop ,301,,70,,,serial-reaction-time,223,253733,0.0-2306.0-0.0,1,,[],,"[[1,1,1,1]]","[0,1]",P,1,1,40,1432,0,2,f,f,301,342,H
225,1707505533686,09/02/2024 19:05:33,1707505533601,1,09/02/2024 20:05:33,143617,34,task-vmxp,,34980278,tgfb6,9856743,,complete,,,computer,Desktop or Laptop,Mac OS 10.15.7,Chrome 121.0.0.0,1440x900,1440x900,,,,Alternating Serial Reaction Time (ASRT) task,5,Stroop ,320.6000000089407,,76,,,serial-reaction-time,224,254579,0.0-2317.0-0.0,1,,[],,"[[1,1,1,1]]","[0,3]",R,1,1,41,1432,0,4,l,l,320.6000000089407,424,T
226,1707505534529,09/02/2024 19:05:34,1707505534444,1,09/02/2024 20:05:34,143617,34,task-vmxp,,34980278,tgfb6,9856743,,complete,,,computer,Desktop or Laptop,Mac OS 10.15.7,Chrome 121.0.0.0,1440x900,1440x900,,,,Alternating Serial Reaction Time (ASRT) task,5,Stroop ,318.29999999701977,,83,,,serial-reaction-time,225,255422,0.0-2328.0-0.0,1,,[],,"[[1,1,1,1]]","[0,0]",P,1,1,42,1432,0,1,s,s,318.29999999701977,241,H
227,1707505535363,09/02/2024 19:05:35,1707505535283,1,09/02/2024 20:05:35,143617,34,task-vmxp,,34980278,tgfb6,9856743,,complete,,,computer,Desktop or Laptop,Mac OS 10.15.7,Chrome 121.0.0.0,1440x900,1440x900,,,,Alternating Serial Reaction Time (ASRT) task,5,Stroop ,315,,76,,,serial-reaction-time,226,256261,0.0-2339.0-0.0,1,,[],,"[[1,1,1,1]]","[0,3]",R,1,1,43,1432,0,4,l,l,315,414,T
228,1707505536401,09/02/2024 19:05:36,1707505536150,1,09/02/2024 20:05:36,143617,34,task-vmxp,,34980278,tgfb6,9856743,,complete,,,computer,Desktop or Laptop,Mac OS 10.15.7,Chrome 121.0.0.0,1440x900,1440x900,,,,Alternating Serial Reaction Time (ASRT) task,5,Stroop ,341.20000000298023,,76,,,serial-reaction-time,227,257128,0.0-2350.0-0.0,1,,[],,"[[1,1,1,1]]","[0,3]",P,1,1,44,1432,0,4,l,l,341.20000000298023,144,H
229,1707505537057,09/02/2024 19:05:37,1707505536973,1,09/02/2024 20:05:36,143617,34,task-vmxp,,34980278,tgfb6,9856743,,complete,,,computer,Desktop or Laptop,Mac OS 10.15.7,Chrome 121.0.0.0,1440x900,1440x900,,,,Alternating Serial Reaction Time (ASRT) task,5,Stroop ,296.09999999403954,,83,,,serial-reaction-time,228,257951,0.0-2361.0-0.0,1,,[],,"[[1,1,1,1]]","[0,0]",R,1,1,45,1432,0,1,s,s,296.09999999403954,441,L
230,1707505537892,09/02/2024 19:05:37,1707505537798,1,09/02/2024 20:05:37,143617,34,task-vmxp,,34980278,tgfb6,9856743,,complete,,,computer,Desktop or Laptop,Mac OS 10.15.7,Chrome 121.0.0.0,1440x900,1440x900,,,,Alternating Serial Reaction Time (ASRT) task,5,Stroop ,298.90000000596046,,74,,,serial-reaction-time,229,258776,0.0-2372.0-0.0,1,,[],,"[[1,1,1,1]]","[0,2]",P,1,1,46,1432,0,3,j,j,298.90000000596046,413,H
231,1707505538736,09/02/2024 19:05:38,1707505538637,1,09/02/2024 20:05:38,143617,34,task-vmxp,,34980278,tgfb6,9856743,,complete,,,computer,Desktop or Laptop,Mac OS 10.15.7,Chrome 121.0.0.0,1440x900,1440x900,,,,Alternating Serial Reaction Time (ASRT) task,5,Stroop ,314.8999999910593,,70,,,serial-reaction-time,230,259615,0.0-2383.0-0.0,1,,[],,"[[1,1,1,1]]","[0,1]",R,1,1,47,1432,0,2,f,f,314.8999999910593,132,L
232,1707505539548,09/02/2024 19:05:39,1707505539464,1,09/02/2024 20:05:39,143617,34,task-vmxp,,34980278,tgfb6,9856743,,complete,,,computer,Desktop or Laptop,Mac OS 10.15.7,Chrome 121.0.0.0,1440x900,1440x900,,,,Alternating Serial Reaction Time (ASRT) task,5,Stroop ,303.70000000298023,,70,,,serial-reaction-time,231,260442,0.0-2394.0-0.0,1,,[],,"[[1,1,1,1]]","[0,1]",P,1,1,48,1432,0,2,f,f,303.70000000298023,322,H
233,1707505540376,09/02/2024 19:05:40,1707505540296,1,09/02/2024 20:05:40,143617,34,task-vmxp,,34980278,tgfb6,9856743,,complete,,,computer,Desktop or Laptop,Mac OS 10.15.7,Chrome 121.0.0.0,1440x900,1440x900,,,,Alternating Serial Reaction Time (ASRT) task,5,Stroop ,308.8999999910593,,70,,,serial-reaction-time,232,261274,0.0-2405.0-0.0,1,,[],,"[[1,1,1,1]]","[0,1]",R,1,1,49,1432,0,2,f,f,308.8999999910593,222,R
234,1707505541300,09/02/2024 19:05:41,1707505541213,1,09/02/2024 20:05:41,143617,34,task-vmxp,,34980278,tgfb6,9856743,,complete,,,computer,Desktop or Laptop,Mac OS 10.15.7,Chrome 121.0.0.0,1440x900,1440x900,,,,Alternating Serial Reaction Time (ASRT) task,5,Stroop ,392.40000000596046,,83,,,serial-reaction-time,233,262191,0.0-2416.0-0.0,1,,[],,"[[1,1,1,1]]","[0,0]",P,1,1,50,1432,0,1,s,s,392.40000000596046,221,H
235,1707505542195,09/02/2024 19:05:42,1707505542106,1,09/02/2024 20:05:42,143617,34,task-vmxp,,34980278,tgfb6,9856743,,complete,,,computer,Desktop or Laptop,Mac OS 10.15.7,Chrome 121.0.0.0,1440x900,1440x900,,,,Alternating Serial Reaction Time (ASRT) task,5,Stroop ,368.1000000089407,,70,,,serial-reaction-time,234,263084,0.0-2427.0-0.0,1,,[],,"[[1,1,1,1]]","[0,1]",R,1,1,51,1432,0,2,f,f,368.1000000089407,212,T
236,1707505543160,09/02/2024 19:05:43,1707505543073,1,09/02/2024 20:05:43,143617,34,task-vmxp,,34980278,tgfb6,9856743,,complete,,,computer,Desktop or Laptop,Mac OS 10.15.7,Chrome 121.0.0.0,1440x900,1440x900,,,,Alternating Serial Reaction Time (ASRT) task,5,Stroop ,439.79999999701977,,76,,,serial-reaction-time,235,264050,0.0-2438.0-0.0,1,,[],,"[[1,1,1,1]]","[0,3]",P,1,1,52,1432,0,4,l,l,439.79999999701977,124,H
237,1707505543950,09/02/2024 19:05:43,1707505543871,1,09/02/2024 20:05:43,143617,34,task-vmxp,,34980278,tgfb6,9856743,,complete,,,computer,Desktop or Laptop,Mac OS 10.15.7,Chrome 121.0.0.0,1440x900,1440x900,,,,Alternating Serial Reaction Time (ASRT) task,5,Stroop ,272.59999999403954,,74,,,serial-reaction-time,236,264849,0.0-2449.0-0.0,1,,[],,"[[1,1,1,1]]","[0,2]",R,1,1,53,1432,0,3,j,j,272.59999999403954,243,L
238,1707505544782,09/02/2024 19:05:44,1707505544699,1,09/02/2024 20:05:44,143617,34,task-vmxp,,34980278,tgfb6,9856743,,complete,,,computer,Desktop or Laptop,Mac OS 10.15.7,Chrome 121.0.0.0,1440x900,1440x900,,,,Alternating Serial Reaction Time (ASRT) task,5,Stroop ,302.5,,74,,,serial-reaction-time,237,265677,0.0-2460.0-0.0,1,,[],,"[[1,1,1,1]]","[0,2]",P,1,1,54,1432,0,3,j,j,302.5,433,H
239,1707505545689,09/02/2024 19:05:45,1707505545600,1,09/02/2024 20:05:45,143617,34,task-vmxp,,34980278,tgfb6,9856743,,complete,,,computer,Desktop or Laptop,Mac OS 10.15.7,Chrome 121.0.0.0,1440x900,1440x900,,,,Alternating Serial Reaction Time (ASRT) task,5,Stroop ,375.1000000089407,,74,,,serial-reaction-time,238,266578,0.0-2471.0-0.0,1,,[],,"[[1,1,1,1]]","[0,2]",R,1,1,55,1432,0,3,j,j,375.1000000089407,333,R
240,1707505546545,09/02/2024 19:05:46,1707505546455,1,09/02/2024 20:05:46,143617,34,task-vmxp,,34980278,tgfb6,9856743,,complete,,,computer,Desktop or Laptop,Mac OS 10.15.7,Chrome 121.0.0.0,1440x900,1440x900,,,,Alternating Serial Reaction Time (ASRT) task,5,Stroop ,329.6000000089407,,83,,,serial-reaction-time,239,267433,0.0-2482.0-0.0,,,[],,"[[1,1,1,1]]","[0,1]",P,1,1,56,1432,0,2,f,s,329.6000000089407,332,H
241,1707505546898,09/02/2024 19:05:46,1707505546810,1,09/02/2024 20:05:46,143617,34,task-vmxp,,34980278,tgfb6,9856743,,complete,,,computer,Desktop or Laptop,Mac OS 10.15.7,Chrome 121.0.0.0,1440x900,1440x900,,,,Alternating Serial Reaction Time (ASRT) task,5,Stroop ,332.70000000298023,,70,,,serial-reaction-time,240,267787,0.0-2483.0-0.0,1,,[],,"[[1,1,1,1]]","[0,1]",P,1,0,56,1432,0,2,f,f,662.3000000119209,332,H
242,1707505547749,09/02/2024 19:05:47,1707505547666,1,09/02/2024 20:05:47,143617,34,task-vmxp,,34980278,tgfb6,9856743,,complete,,,computer,Desktop or Laptop,Mac OS 10.15.7,Chrome 121.0.0.0,1440x900,1440x900,,,,Alternating Serial Reaction Time (ASRT) task,5,Stroop ,331.09999999403954,,70,,,serial-reaction-time,241,268644,0.0-2493.0-0.0,1,,[],,"[[1,1,1,1]]","[0,1]",R,1,1,57,1432,0,2,f,f,331.09999999403954,322,H
243,1707505548575,09/02/2024 19:05:48,1707505548502,1,09/02/2024 20:05:48,143617,34,task-vmxp,,34980278,tgfb6,9856743,,complete,,,computer,Desktop or Laptop,Mac OS 10.15.7,Chrome 121.0.0.0,1440x900,1440x900,,,,Alternating Serial Reaction Time (ASRT) task,5,Stroop ,313.70000000298023,,83,,,serial-reaction-time,242,269479,0.0-2504.0-0.0,1,,[],,"[[1,1,1,1]]","[0,0]",P,1,1,58,1432,0,1,s,s,313.70000000298023,221,H
