"Event Index","UTC Timestamp","UTC Date and Time","Local Timestamp","Local Timezone","Local Date and Time","Experiment ID","Experiment Version","Tree Node Key","Repeat Key","Schedule ID","Participant Public ID","Participant Private ID","Participant Starting Group","Participant Status","Participant Completion Code","Participant External Session ID","Participant Device Type","Participant Device","Participant OS","Participant Browser","Participant Monitor Size","Participant Viewport Size","Checkpoint","Room ID","Room Order","Task Name","Task Version","randomiser-5g79","rt","stimulus","key_press","test_part","correct_response","trial_type","trial_index","time_elapsed","internal_node_id","correct","success","browser_events","view_history","grid","target","p_or_r","block","first_response","trial_number","sequence","is_practice","correct_pos","correct_resp_button","resp_button","cumulative_RT","actual_triplet","triplet_type"
1,1712517761005,2024-07-04 19:22:41,1712517789561,2,2024-07-04 21:23:09,143587,32,"task-7kgt",NA,36816537,"hcqa8",9856430,NA,"complete",NA,NA,"computer","Desktop or Laptop","Windows 10","Chrome 123.0.0.0","1920x1080","1920x1080",NA,NA,NA,"Alternating Serial Reaction Time (ASRT) task",37,"DGS",NA,NA,NA,NA,NA,"fullscreen",0,4660,"0.0-0.0",NA,1,"[{""event"":""fullscreenenter"",""trial"":0,""time"":3647}]",NA,NA,NA,NA,NA,NA,NA,NA,NA,NA,NA,NA,NA,NA,NA
2,1712517896391,2024-07-04 19:24:56,1712517924799,2,2024-07-04 21:25:24,143587,32,"task-7kgt",NA,36816537,"hcqa8",9856430,NA,"complete",NA,NA,"computer","Desktop or Laptop","Windows 10","Chrome 123.0.0.0","1920x1080","1920x1080",NA,NA,NA,"Alternating Serial Reaction Time (ASRT) task",37,"DGS",135218.200000048,NA,NA,NA,NA,"instructions",1,139899,"0.0-1.0",NA,NA,"[]","[{""page_index"":0,""viewing_time"":69998.5},{""page_index"":1,""viewing_time"":65219.200000047684}]",NA,NA,NA,NA,NA,NA,NA,NA,NA,NA,NA,NA,NA,NA
3,1712517899671,2024-07-04 19:24:59,1712517928288,2,2024-07-04 21:25:28,143587,32,"task-7kgt",NA,36816537,"hcqa8",9856430,NA,"complete",NA,NA,"computer","Desktop or Laptop","Windows 10","Chrome 123.0.0.0","1920x1080","1920x1080",NA,NA,NA,"Alternating Serial Reaction Time (ASRT) task",37,"DGS",3479.09999990463,"<h2>Now a short practice will start.</h2>
        <p>Please place your fingers in this position on the keyboard:</p>
        <img src=/task/663873/37/asset/keyboard.bmp height='10%'>
        <p><strong>If you are ready, press <strong>any</strong> key to start a practice!</strong></p>",83,NA,NA,"html-keyboard-response",2,143388,"0.0-2.0",NA,NA,"[]",NA,NA,NA,NA,NA,NA,NA,NA,NA,NA,NA,NA,NA,NA,NA
4,1712517900296,2024-07-04 19:25:00,1712517928926,2,2024-07-04 21:25:28,143587,32,"task-7kgt",NA,36816537,"hcqa8",9856430,NA,"complete",NA,NA,"computer","Desktop or Laptop","Windows 10","Chrome 123.0.0.0","1920x1080","1920x1080",NA,NA,NA,"Alternating Serial Reaction Time (ASRT) task",37,"DGS",621.200000047684,NA,76,NA,NA,"serial-reaction-time",3,144026,"0.0-3.0-0.0",1,NA,"[]",NA,"[[1,1,1,1]]","[0,3]","R",1,1,1,3421,1,4,"l","l",621.200000047684,4,"X"
5,1712517901223,2024-07-04 19:25:01,1712517929830,2,2024-07-04 21:25:29,143587,32,"task-7kgt",NA,36816537,"hcqa8",9856430,NA,"complete",NA,NA,"computer","Desktop or Laptop","Windows 10","Chrome 123.0.0.0","1920x1080","1920x1080",NA,NA,NA,"Alternating Serial Reaction Time (ASRT) task",37,"DGS",389.600000143051,NA,76,NA,NA,"serial-reaction-time",4,144929,"0.0-14.0-0.0",1,NA,"[]",NA,"[[1,1,1,1]]","[0,3]","R",1,1,2,3421,1,4,"l","l",389.600000143051,44,"X"
6,1712517902270,2024-07-04 19:25:02,1712517930892,2,2024-07-04 21:25:30,143587,32,"task-7kgt",NA,36816537,"hcqa8",9856430,NA,"complete",NA,NA,"computer","Desktop or Laptop","Windows 10","Chrome 123.0.0.0","1920x1080","1920x1080",NA,NA,NA,"Alternating Serial Reaction Time (ASRT) task",37,"DGS",547.800000190735,NA,70,NA,NA,"serial-reaction-time",5,145992,"0.0-25.0-0.0",1,NA,"[]",NA,"[[1,1,1,1]]","[0,1]","R",1,1,3,3421,1,2,"f","f",547.800000190735,442,"X"
7,1712517903115,2024-07-04 19:25:03,1712517931747,2,2024-07-04 21:25:31,143587,32,"task-7kgt",NA,36816537,"hcqa8",9856430,NA,"complete",NA,NA,"computer","Desktop or Laptop","Windows 10","Chrome 123.0.0.0","1920x1080","1920x1080",NA,NA,NA,"Alternating Serial Reaction Time (ASRT) task",37,"DGS",346.300000190735,NA,76,NA,NA,"serial-reaction-time",6,146847,"0.0-36.0-0.0",1,NA,"[]",NA,"[[1,1,1,1]]","[0,3]","R",1,1,4,3421,1,4,"l","l",346.300000190735,424,"X"
8,1712517903967,2024-07-04 19:25:03,1712517932574,2,2024-07-04 21:25:32,143587,32,"task-7kgt",NA,36816537,"hcqa8",9856430,NA,"complete",NA,NA,"computer","Desktop or Laptop","Windows 10","Chrome 123.0.0.0","1920x1080","1920x1080",NA,NA,NA,"Alternating Serial Reaction Time (ASRT) task",37,"DGS",316,NA,83,NA,NA,"serial-reaction-time",7,147673,"0.0-47.0-0.0",1,NA,"[]",NA,"[[1,1,1,1]]","[0,0]","R",1,1,5,3421,1,1,"s","s",316,241,"X"
9,1712517904826,2024-07-04 19:25:04,1712517933444,2,2024-07-04 21:25:33,143587,32,"task-7kgt",NA,36816537,"hcqa8",9856430,NA,"complete",NA,NA,"computer","Desktop or Laptop","Windows 10","Chrome 123.0.0.0","1920x1080","1920x1080",NA,NA,NA,"Alternating Serial Reaction Time (ASRT) task",37,"DGS",361.900000095367,NA,74,NA,NA,"serial-reaction-time",8,148544,"0.0-58.0-0.0",1,NA,"[]",NA,"[[1,1,1,1]]","[0,2]","R",1,1,6,3421,1,3,"j","j",361.900000095367,413,"X"
10,1712517905671,2024-07-04 19:25:05,1712517934302,2,2024-07-04 21:25:34,143587,32,"task-7kgt",NA,36816537,"hcqa8",9856430,NA,"complete",NA,NA,"computer","Desktop or Laptop","Windows 10","Chrome 123.0.0.0","1920x1080","1920x1080",NA,NA,NA,"Alternating Serial Reaction Time (ASRT) task",37,"DGS",342.899999856949,NA,74,NA,NA,"serial-reaction-time",9,149402,"0.0-69.0-0.0",1,NA,"[]",NA,"[[1,1,1,1]]","[0,2]","R",1,1,7,3421,1,3,"j","j",342.899999856949,133,"X"
11,1712517906457,2024-07-04 19:25:06,1712517935077,2,2024-07-04 21:25:35,143587,32,"task-7kgt",NA,36816537,"hcqa8",9856430,NA,"complete",NA,NA,"computer","Desktop or Laptop","Windows 10","Chrome 123.0.0.0","1920x1080","1920x1080",NA,NA,NA,"Alternating Serial Reaction Time (ASRT) task",37,"DGS",262.199999809265,NA,76,NA,NA,"serial-reaction-time",10,150177,"0.0-80.0-0.0",1,NA,"[]",NA,"[[1,1,1,1]]","[0,3]","R",1,1,8,3421,1,4,"l","l",262.199999809265,334,"X"
12,1712517907393,2024-07-04 19:25:07,1712517936011,2,2024-07-04 21:25:36,143587,32,"task-7kgt",NA,36816537,"hcqa8",9856430,NA,"complete",NA,NA,"computer","Desktop or Laptop","Windows 10","Chrome 123.0.0.0","1920x1080","1920x1080",NA,NA,NA,"Alternating Serial Reaction Time (ASRT) task",37,"DGS",407.099999904633,NA,74,NA,NA,"serial-reaction-time",11,151111,"0.0-91.0-0.0",NA,NA,"[]",NA,"[[1,1,1,1]]","[0,1]","R",1,1,9,3421,1,2,"f","j",407.099999904633,342,"X"
13,1712517907705,2024-07-04 19:25:07,1712517936324,2,2024-07-04 21:25:36,143587,32,"task-7kgt",NA,36816537,"hcqa8",9856430,NA,"complete",NA,NA,"computer","Desktop or Laptop","Windows 10","Chrome 123.0.0.0","1920x1080","1920x1080",NA,NA,NA,"Alternating Serial Reaction Time (ASRT) task",37,"DGS",303.700000047684,NA,70,NA,NA,"serial-reaction-time",12,151424,"0.0-92.0-0.0",1,NA,"[]",NA,"[[1,1,1,1]]","[0,1]","R",1,0,9,3421,1,2,"f","f",710.799999952316,342,"X"
14,1712517908594,2024-07-04 19:25:08,1712517937224,2,2024-07-04 21:25:37,143587,32,"task-7kgt",NA,36816537,"hcqa8",9856430,NA,"complete",NA,NA,"computer","Desktop or Laptop","Windows 10","Chrome 123.0.0.0","1920x1080","1920x1080",NA,NA,NA,"Alternating Serial Reaction Time (ASRT) task",37,"DGS",385.799999952316,NA,70,NA,NA,"serial-reaction-time",13,152324,"0.0-102.0-0.0",1,NA,"[]",NA,"[[1,1,1,1]]","[0,1]","R",1,1,10,3421,1,2,"f","f",385.799999952316,422,"X"
15,1712517909441,2024-07-04 19:25:09,1712517938064,2,2024-07-04 21:25:38,143587,32,"task-7kgt",NA,36816537,"hcqa8",9856430,NA,"complete",NA,NA,"computer","Desktop or Laptop","Windows 10","Chrome 123.0.0.0","1920x1080","1920x1080",NA,NA,NA,"Alternating Serial Reaction Time (ASRT) task",37,"DGS",325.399999856949,NA,70,NA,NA,"serial-reaction-time",14,153164,"0.0-113.0-0.0",1,NA,"[]",NA,"[[1,1,1,1]]","[0,1]","R",1,1,11,3421,1,2,"f","f",325.399999856949,222,"X"
16,1712517910296,2024-07-04 19:25:10,1712517938916,2,2024-07-04 21:25:38,143587,32,"task-7kgt",NA,36816537,"hcqa8",9856430,NA,"complete",NA,NA,"computer","Desktop or Laptop","Windows 10","Chrome 123.0.0.0","1920x1080","1920x1080",NA,NA,NA,"Alternating Serial Reaction Time (ASRT) task",37,"DGS",341.5,NA,76,NA,NA,"serial-reaction-time",15,154016,"0.0-124.0-0.0",1,NA,"[]",NA,"[[1,1,1,1]]","[0,3]","R",1,1,12,3421,1,4,"l","l",341.5,224,"X"
17,1712517911270,2024-07-04 19:25:11,1712517939900,2,2024-07-04 21:25:39,143587,32,"task-7kgt",NA,36816537,"hcqa8",9856430,NA,"complete",NA,NA,"computer","Desktop or Laptop","Windows 10","Chrome 123.0.0.0","1920x1080","1920x1080",NA,NA,NA,"Alternating Serial Reaction Time (ASRT) task",37,"DGS",472.100000143051,NA,70,NA,NA,"serial-reaction-time",16,155000,"0.0-135.0-0.0",1,NA,"[]",NA,"[[1,1,1,1]]","[0,1]","R",1,1,13,3421,1,2,"f","f",472.100000143051,242,"X"
18,1712517912309,2024-07-04 19:25:12,1712517940928,2,2024-07-04 21:25:40,143587,32,"task-7kgt",NA,36816537,"hcqa8",9856430,NA,"complete",NA,NA,"computer","Desktop or Laptop","Windows 10","Chrome 123.0.0.0","1920x1080","1920x1080",NA,NA,NA,"Alternating Serial Reaction Time (ASRT) task",37,"DGS",512.699999809265,NA,74,NA,NA,"serial-reaction-time",17,156028,"0.0-146.0-0.0",1,NA,"[]",NA,"[[1,1,1,1]]","[0,2]","R",1,1,14,3421,1,3,"j","j",512.699999809265,423,"X"
19,1712517913246,2024-07-04 19:25:13,1712517941854,2,2024-07-04 21:25:41,143587,32,"task-7kgt",NA,36816537,"hcqa8",9856430,NA,"complete",NA,NA,"computer","Desktop or Laptop","Windows 10","Chrome 123.0.0.0","1920x1080","1920x1080",NA,NA,NA,"Alternating Serial Reaction Time (ASRT) task",37,"DGS",417.200000047684,NA,70,NA,NA,"serial-reaction-time",18,156954,"0.0-157.0-0.0",1,NA,"[]",NA,"[[1,1,1,1]]","[0,1]","R",1,1,15,3421,1,2,"f","f",417.200000047684,232,"X"
20,1712517914085,2024-07-04 19:25:14,1712517942717,2,2024-07-04 21:25:42,143587,32,"task-7kgt",NA,36816537,"hcqa8",9856430,NA,"complete",NA,NA,"computer","Desktop or Laptop","Windows 10","Chrome 123.0.0.0","1920x1080","1920x1080",NA,NA,NA,"Alternating Serial Reaction Time (ASRT) task",37,"DGS",349.299999952316,NA,83,NA,NA,"serial-reaction-time",19,157817,"0.0-168.0-0.0",1,NA,"[]",NA,"[[1,1,1,1]]","[0,0]","R",1,1,16,3421,1,1,"s","s",349.299999952316,321,"X"
21,1712517914939,2024-07-04 19:25:14,1712517943569,2,2024-07-04 21:25:43,143587,32,"task-7kgt",NA,36816537,"hcqa8",9856430,NA,"complete",NA,NA,"computer","Desktop or Laptop","Windows 10","Chrome 123.0.0.0","1920x1080","1920x1080",NA,NA,NA,"Alternating Serial Reaction Time (ASRT) task",37,"DGS",337.099999904633,NA,70,NA,NA,"serial-reaction-time",20,158669,"0.0-179.0-0.0",1,NA,"[]",NA,"[[1,1,1,1]]","[0,1]","R",1,1,17,3421,1,2,"f","f",337.099999904633,212,"X"
22,1712517915834,2024-07-04 19:25:15,1712517944458,2,2024-07-04 21:25:44,143587,32,"task-7kgt",NA,36816537,"hcqa8",9856430,NA,"complete",NA,NA,"computer","Desktop or Laptop","Windows 10","Chrome 123.0.0.0","1920x1080","1920x1080",NA,NA,NA,"Alternating Serial Reaction Time (ASRT) task",37,"DGS",374.200000047684,NA,70,NA,NA,"serial-reaction-time",21,159558,"0.0-190.0-0.0",1,NA,"[]",NA,"[[1,1,1,1]]","[0,1]","R",1,1,18,3421,1,2,"f","f",374.200000047684,122,"X"
23,1712517916641,2024-07-04 19:25:16,1712517945264,2,2024-07-04 21:25:45,143587,32,"task-7kgt",NA,36816537,"hcqa8",9856430,NA,"complete",NA,NA,"computer","Desktop or Laptop","Windows 10","Chrome 123.0.0.0","1920x1080","1920x1080",NA,NA,NA,"Alternating Serial Reaction Time (ASRT) task",37,"DGS",291,NA,70,NA,NA,"serial-reaction-time",22,160364,"0.0-201.0-0.0",1,NA,"[]",NA,"[[1,1,1,1]]","[0,1]","R",1,1,19,3421,1,2,"f","f",291,222,"X"
24,1712517917591,2024-07-04 19:25:17,1712517946218,2,2024-07-04 21:25:46,143587,32,"task-7kgt",NA,36816537,"hcqa8",9856430,NA,"complete",NA,NA,"computer","Desktop or Laptop","Windows 10","Chrome 123.0.0.0","1920x1080","1920x1080",NA,NA,NA,"Alternating Serial Reaction Time (ASRT) task",37,"DGS",441.099999904633,NA,76,NA,NA,"serial-reaction-time",23,161318,"0.0-212.0-0.0",1,NA,"[]",NA,"[[1,1,1,1]]","[0,3]","R",1,1,20,3421,1,4,"l","l",441.099999904633,224,"X"
25,1712517918559,2024-07-04 19:25:18,1712517947178,2,2024-07-04 21:25:47,143587,32,"task-7kgt",NA,36816537,"hcqa8",9856430,NA,"complete",NA,NA,"computer","Desktop or Laptop","Windows 10","Chrome 123.0.0.0","1920x1080","1920x1080",NA,NA,NA,"Alternating Serial Reaction Time (ASRT) task",37,"DGS",444.700000047684,NA,70,NA,NA,"serial-reaction-time",24,162278,"0.0-223.0-0.0",1,NA,"[]",NA,"[[1,1,1,1]]","[0,1]","R",1,1,21,3421,1,2,"f","f",444.700000047684,242,"X"
26,1712517919459,2024-07-04 19:25:19,1712517948080,2,2024-07-04 21:25:48,143587,32,"task-7kgt",NA,36816537,"hcqa8",9856430,NA,"complete",NA,NA,"computer","Desktop or Laptop","Windows 10","Chrome 123.0.0.0","1920x1080","1920x1080",NA,NA,NA,"Alternating Serial Reaction Time (ASRT) task",37,"DGS",387.5,NA,76,NA,NA,"serial-reaction-time",25,163180,"0.0-234.0-0.0",1,NA,"[]",NA,"[[1,1,1,1]]","[0,3]","R",1,1,22,3421,1,4,"l","l",387.5,424,"X"
27,1712517920480,2024-07-04 19:25:20,1712517949103,2,2024-07-04 21:25:49,143587,32,"task-7kgt",NA,36816537,"hcqa8",9856430,NA,"complete",NA,NA,"computer","Desktop or Laptop","Windows 10","Chrome 123.0.0.0","1920x1080","1920x1080",NA,NA,NA,"Alternating Serial Reaction Time (ASRT) task",37,"DGS",506.399999856949,NA,70,NA,NA,"serial-reaction-time",26,164202,"0.0-245.0-0.0",1,NA,"[]",NA,"[[1,1,1,1]]","[0,1]","R",1,1,23,3421,1,2,"f","f",506.399999856949,242,"X"
28,1712517921362,2024-07-04 19:25:21,1712517949986,2,2024-07-04 21:25:49,143587,32,"task-7kgt",NA,36816537,"hcqa8",9856430,NA,"complete",NA,NA,"computer","Desktop or Laptop","Windows 10","Chrome 123.0.0.0","1920x1080","1920x1080",NA,NA,NA,"Alternating Serial Reaction Time (ASRT) task",37,"DGS",370.5,NA,70,NA,NA,"serial-reaction-time",27,165086,"0.0-256.0-0.0",1,NA,"[]",NA,"[[1,1,1,1]]","[0,1]","R",1,1,24,3421,1,2,"f","f",370.5,422,"X"
29,1712517922479,2024-07-04 19:25:22,1712517951099,2,2024-07-04 21:25:51,143587,32,"task-7kgt",NA,36816537,"hcqa8",9856430,NA,"complete",NA,NA,"computer","Desktop or Laptop","Windows 10","Chrome 123.0.0.0","1920x1080","1920x1080",NA,NA,NA,"Alternating Serial Reaction Time (ASRT) task",37,"DGS",600.899999856949,NA,74,NA,NA,"serial-reaction-time",28,166199,"0.0-267.0-0.0",1,NA,"[]",NA,"[[1,1,1,1]]","[0,2]","R",1,1,25,3421,1,3,"j","j",600.899999856949,223,"X"
30,1712517923409,2024-07-04 19:25:23,1712517952031,2,2024-07-04 21:25:52,143587,32,"task-7kgt",NA,36816537,"hcqa8",9856430,NA,"complete",NA,NA,"computer","Desktop or Laptop","Windows 10","Chrome 123.0.0.0","1920x1080","1920x1080",NA,NA,NA,"Alternating Serial Reaction Time (ASRT) task",37,"DGS",421.700000047684,NA,70,NA,NA,"serial-reaction-time",29,167131,"0.0-278.0-0.0",1,NA,"[]",NA,"[[1,1,1,1]]","[0,1]","R",1,1,26,3421,1,2,"f","f",421.700000047684,232,"X"
31,1712517924265,2024-07-04 19:25:24,1712517952886,2,2024-07-04 21:25:52,143587,32,"task-7kgt",NA,36816537,"hcqa8",9856430,NA,"complete",NA,NA,"computer","Desktop or Laptop","Windows 10","Chrome 123.0.0.0","1920x1080","1920x1080",NA,NA,NA,"Alternating Serial Reaction Time (ASRT) task",37,"DGS",334.599999904633,NA,70,NA,NA,"serial-reaction-time",30,167986,"0.0-289.0-0.0",1,NA,"[]",NA,"[[1,1,1,1]]","[0,1]","R",1,1,27,3421,1,2,"f","f",334.599999904633,322,"X"
32,1712517925352,2024-07-04 19:25:25,1712517953965,2,2024-07-04 21:25:53,143587,32,"task-7kgt",NA,36816537,"hcqa8",9856430,NA,"complete",NA,NA,"computer","Desktop or Laptop","Windows 10","Chrome 123.0.0.0","1920x1080","1920x1080",NA,NA,NA,"Alternating Serial Reaction Time (ASRT) task",37,"DGS",565.299999952316,NA,74,NA,NA,"serial-reaction-time",31,169065,"0.0-300.0-0.0",1,NA,"[]",NA,"[[1,1,1,1]]","[0,2]","R",1,1,28,3421,1,3,"j","j",565.299999952316,223,"X"
33,1712517926312,2024-07-04 19:25:26,1712517954931,2,2024-07-04 21:25:54,143587,32,"task-7kgt",NA,36816537,"hcqa8",9856430,NA,"complete",NA,NA,"computer","Desktop or Laptop","Windows 10","Chrome 123.0.0.0","1920x1080","1920x1080",NA,NA,NA,"Alternating Serial Reaction Time (ASRT) task",37,"DGS",452.399999856949,NA,70,NA,NA,"serial-reaction-time",32,170031,"0.0-311.0-0.0",1,NA,"[]",NA,"[[1,1,1,1]]","[0,1]","R",1,1,29,3421,1,2,"f","f",452.399999856949,232,"X"
34,1712517927127,2024-07-04 19:25:27,1712517955750,2,2024-07-04 21:25:55,143587,32,"task-7kgt",NA,36816537,"hcqa8",9856430,NA,"complete",NA,NA,"computer","Desktop or Laptop","Windows 10","Chrome 123.0.0.0","1920x1080","1920x1080",NA,NA,NA,"Alternating Serial Reaction Time (ASRT) task",37,"DGS",309.899999856949,NA,74,NA,NA,"serial-reaction-time",33,170850,"0.0-322.0-0.0",1,NA,"[]",NA,"[[1,1,1,1]]","[0,2]","R",1,1,30,3421,1,3,"j","j",309.899999856949,323,"X"
35,1712517927939,2024-07-04 19:25:27,1712517956553,2,2024-07-04 21:25:56,143587,32,"task-7kgt",NA,36816537,"hcqa8",9856430,NA,"complete",NA,NA,"computer","Desktop or Laptop","Windows 10","Chrome 123.0.0.0","1920x1080","1920x1080",NA,NA,NA,"Alternating Serial Reaction Time (ASRT) task",37,"DGS",291.799999952316,NA,70,NA,NA,"serial-reaction-time",34,171653,"0.0-333.0-0.0",1,NA,"[]",NA,"[[1,1,1,1]]","[0,1]","R",1,1,31,3421,1,2,"f","f",291.799999952316,232,"X"
36,1712517928774,2024-07-04 19:25:28,1712517957385,2,2024-07-04 21:25:57,143587,32,"task-7kgt",NA,36816537,"hcqa8",9856430,NA,"complete",NA,NA,"computer","Desktop or Laptop","Windows 10","Chrome 123.0.0.0","1920x1080","1920x1080",NA,NA,NA,"Alternating Serial Reaction Time (ASRT) task",37,"DGS",307.899999856949,NA,74,NA,NA,"serial-reaction-time",35,172484,"0.0-344.0-0.0",1,NA,"[]",NA,"[[1,1,1,1]]","[0,2]","R",1,1,32,3421,1,3,"j","j",307.899999856949,323,"X"
37,1712517929740,2024-07-04 19:25:29,1712517958358,2,2024-07-04 21:25:58,143587,32,"task-7kgt",NA,36816537,"hcqa8",9856430,NA,"complete",NA,NA,"computer","Desktop or Laptop","Windows 10","Chrome 123.0.0.0","1920x1080","1920x1080",NA,NA,NA,"Alternating Serial Reaction Time (ASRT) task",37,"DGS",457.800000190735,NA,83,NA,NA,"serial-reaction-time",36,173458,"0.0-355.0-0.0",1,NA,"[]",NA,"[[1,1,1,1]]","[0,0]","R",1,1,33,3421,1,1,"s","s",457.800000190735,231,"X"
38,1712517930595,2024-07-04 19:25:30,1712517959222,2,2024-07-04 21:25:59,143587,32,"task-7kgt",NA,36816537,"hcqa8",9856430,NA,"complete",NA,NA,"computer","Desktop or Laptop","Windows 10","Chrome 123.0.0.0","1920x1080","1920x1080",NA,NA,NA,"Alternating Serial Reaction Time (ASRT) task",37,"DGS",355,NA,83,NA,NA,"serial-reaction-time",37,174322,"0.0-366.0-0.0",1,NA,"[]",NA,"[[1,1,1,1]]","[0,0]","R",1,1,34,3421,1,1,"s","s",355,311,"X"
39,1712517931566,2024-07-04 19:25:31,1712517960191,2,2024-07-04 21:26:00,143587,32,"task-7kgt",NA,36816537,"hcqa8",9856430,NA,"complete",NA,NA,"computer","Desktop or Laptop","Windows 10","Chrome 123.0.0.0","1920x1080","1920x1080",NA,NA,NA,"Alternating Serial Reaction Time (ASRT) task",37,"DGS",460.600000143051,NA,74,NA,NA,"serial-reaction-time",38,175291,"0.0-377.0-0.0",1,NA,"[]",NA,"[[1,1,1,1]]","[0,2]","R",1,1,35,3421,1,3,"j","j",460.600000143051,113,"X"
40,1712517932532,2024-07-04 19:25:32,1712517961146,2,2024-07-04 21:26:01,143587,32,"task-7kgt",NA,36816537,"hcqa8",9856430,NA,"complete",NA,NA,"computer","Desktop or Laptop","Windows 10","Chrome 123.0.0.0","1920x1080","1920x1080",NA,NA,NA,"Alternating Serial Reaction Time (ASRT) task",37,"DGS",440.200000047684,NA,83,NA,NA,"serial-reaction-time",39,176246,"0.0-388.0-0.0",1,NA,"[]",NA,"[[1,1,1,1]]","[0,0]","R",1,1,36,3421,1,1,"s","s",440.200000047684,131,"X"
41,1712517933355,2024-07-04 19:25:33,1712517961973,2,2024-07-04 21:26:01,143587,32,"task-7kgt",NA,36816537,"hcqa8",9856430,NA,"complete",NA,NA,"computer","Desktop or Laptop","Windows 10","Chrome 123.0.0.0","1920x1080","1920x1080",NA,NA,NA,"Alternating Serial Reaction Time (ASRT) task",37,"DGS",317.700000047684,NA,70,NA,NA,"serial-reaction-time",40,177073,"0.0-399.0-0.0",1,NA,"[]",NA,"[[1,1,1,1]]","[0,1]","R",1,1,37,3421,1,2,"f","f",317.700000047684,312,"X"
42,1712517934185,2024-07-04 19:25:34,1712517962812,2,2024-07-04 21:26:02,143587,32,"task-7kgt",NA,36816537,"hcqa8",9856430,NA,"complete",NA,NA,"computer","Desktop or Laptop","Windows 10","Chrome 123.0.0.0","1920x1080","1920x1080",NA,NA,NA,"Alternating Serial Reaction Time (ASRT) task",37,"DGS",327.799999952316,NA,74,NA,NA,"serial-reaction-time",41,177912,"0.0-410.0-0.0",1,NA,"[]",NA,"[[1,1,1,1]]","[0,2]","R",1,1,38,3421,1,3,"j","j",327.799999952316,123,"X"
43,1712517935114,2024-07-04 19:25:35,1712517963699,2,2024-07-04 21:26:03,143587,32,"task-7kgt",NA,36816537,"hcqa8",9856430,NA,"complete",NA,NA,"computer","Desktop or Laptop","Windows 10","Chrome 123.0.0.0","1920x1080","1920x1080",NA,NA,NA,"Alternating Serial Reaction Time (ASRT) task",37,"DGS",364.799999952316,NA,70,NA,NA,"serial-reaction-time",42,178799,"0.0-421.0-0.0",1,NA,"[]",NA,"[[1,1,1,1]]","[0,1]","R",1,1,39,3421,1,2,"f","f",364.799999952316,232,"X"
44,1712517935982,2024-07-04 19:25:35,1712517964596,2,2024-07-04 21:26:04,143587,32,"task-7kgt",NA,36816537,"hcqa8",9856430,NA,"complete",NA,NA,"computer","Desktop or Laptop","Windows 10","Chrome 123.0.0.0","1920x1080","1920x1080",NA,NA,NA,"Alternating Serial Reaction Time (ASRT) task",37,"DGS",383.299999952316,NA,76,NA,NA,"serial-reaction-time",43,179696,"0.0-432.0-0.0",1,NA,"[]",NA,"[[1,1,1,1]]","[0,3]","R",1,1,40,3421,1,4,"l","l",383.299999952316,324,"X"
45,1712517936811,2024-07-04 19:25:36,1712517965430,2,2024-07-04 21:26:05,143587,32,"task-7kgt",NA,36816537,"hcqa8",9856430,NA,"complete",NA,NA,"computer","Desktop or Laptop","Windows 10","Chrome 123.0.0.0","1920x1080","1920x1080",NA,NA,NA,"Alternating Serial Reaction Time (ASRT) task",37,"DGS",319.799999952316,NA,70,NA,NA,"serial-reaction-time",44,180530,"0.0-443.0-0.0",1,NA,"[]",NA,"[[1,1,1,1]]","[0,1]","R",1,1,41,3421,1,2,"f","f",319.799999952316,242,"X"
46,1712517937659,2024-07-04 19:25:37,1712517966286,2,2024-07-04 21:26:06,143587,32,"task-7kgt",NA,36816537,"hcqa8",9856430,NA,"complete",NA,NA,"computer","Desktop or Laptop","Windows 10","Chrome 123.0.0.0","1920x1080","1920x1080",NA,NA,NA,"Alternating Serial Reaction Time (ASRT) task",37,"DGS",341.400000095367,NA,74,NA,NA,"serial-reaction-time",45,181386,"0.0-454.0-0.0",1,NA,"[]",NA,"[[1,1,1,1]]","[0,2]","R",1,1,42,3421,1,3,"j","j",341.400000095367,423,"X"
47,1712517938465,2024-07-04 19:25:38,1712517967080,2,2024-07-04 21:26:07,143587,32,"task-7kgt",NA,36816537,"hcqa8",9856430,NA,"complete",NA,NA,"computer","Desktop or Laptop","Windows 10","Chrome 123.0.0.0","1920x1080","1920x1080",NA,NA,NA,"Alternating Serial Reaction Time (ASRT) task",37,"DGS",281.5,NA,70,NA,NA,"serial-reaction-time",46,182180,"0.0-465.0-0.0",1,NA,"[]",NA,"[[1,1,1,1]]","[0,1]","R",1,1,43,3421,1,2,"f","f",281.5,232,"X"
48,1712517939328,2024-07-04 19:25:39,1712517967950,2,2024-07-04 21:26:07,143587,32,"task-7kgt",NA,36816537,"hcqa8",9856430,NA,"complete",NA,NA,"computer","Desktop or Laptop","Windows 10","Chrome 123.0.0.0","1920x1080","1920x1080",NA,NA,NA,"Alternating Serial Reaction Time (ASRT) task",37,"DGS",354.5,NA,70,NA,NA,"serial-reaction-time",47,183050,"0.0-476.0-0.0",NA,NA,"[]",NA,"[[1,1,1,1]]","[0,0]","R",1,1,44,3421,1,1,"s","f",354.5,321,"X"
49,1712517939564,2024-07-04 19:25:39,1712517968178,2,2024-07-04 21:26:08,143587,32,"task-7kgt",NA,36816537,"hcqa8",9856430,NA,"complete",NA,NA,"computer","Desktop or Laptop","Windows 10","Chrome 123.0.0.0","1920x1080","1920x1080",NA,NA,NA,"Alternating Serial Reaction Time (ASRT) task",37,"DGS",218.299999952316,NA,83,NA,NA,"serial-reaction-time",48,183278,"0.0-477.0-0.0",1,NA,"[]",NA,"[[1,1,1,1]]","[0,0]","R",1,0,44,3421,1,1,"s","s",572.799999952316,321,"X"
50,1712517940497,2024-07-04 19:25:40,1712517969116,2,2024-07-04 21:26:09,143587,32,"task-7kgt",NA,36816537,"hcqa8",9856430,NA,"complete",NA,NA,"computer","Desktop or Laptop","Windows 10","Chrome 123.0.0.0","1920x1080","1920x1080",NA,NA,NA,"Alternating Serial Reaction Time (ASRT) task",37,"DGS",423.399999856949,NA,70,NA,NA,"serial-reaction-time",49,184216,"0.0-487.0-0.0",1,NA,"[]",NA,"[[1,1,1,1]]","[0,1]","R",1,1,45,3421,1,2,"f","f",423.399999856949,212,"X"
51,1712517941487,2024-07-04 19:25:41,1712517970105,2,2024-07-04 21:26:10,143587,32,"task-7kgt",NA,36816537,"hcqa8",9856430,NA,"complete",NA,NA,"computer","Desktop or Laptop","Windows 10","Chrome 123.0.0.0","1920x1080","1920x1080",NA,NA,NA,"Alternating Serial Reaction Time (ASRT) task",37,"DGS",464.900000095367,NA,83,NA,NA,"serial-reaction-time",50,185205,"0.0-498.0-0.0",1,NA,"[]",NA,"[[1,1,1,1]]","[0,0]","R",1,1,46,3421,1,1,"s","s",464.900000095367,121,"X"
52,1712517942478,2024-07-04 19:25:42,1712517971093,2,2024-07-04 21:26:11,143587,32,"task-7kgt",NA,36816537,"hcqa8",9856430,NA,"complete",NA,NA,"computer","Desktop or Laptop","Windows 10","Chrome 123.0.0.0","1920x1080","1920x1080",NA,NA,NA,"Alternating Serial Reaction Time (ASRT) task",37,"DGS",473.800000190735,NA,83,NA,NA,"serial-reaction-time",51,186193,"0.0-509.0-0.0",1,NA,"[]",NA,"[[1,1,1,1]]","[0,0]","R",1,1,47,3421,1,1,"s","s",473.800000190735,211,"X"
53,1712517943372,2024-07-04 19:25:43,1712517971987,2,2024-07-04 21:26:11,143587,32,"task-7kgt",NA,36816537,"hcqa8",9856430,NA,"complete",NA,NA,"computer","Desktop or Laptop","Windows 10","Chrome 123.0.0.0","1920x1080","1920x1080",NA,NA,NA,"Alternating Serial Reaction Time (ASRT) task",37,"DGS",380.700000047684,NA,76,NA,NA,"serial-reaction-time",52,187087,"0.0-520.0-0.0",NA,NA,"[]",NA,"[[1,1,1,1]]","[0,2]","R",1,1,48,3421,1,3,"j","l",380.700000047684,113,"X"
54,1712517943685,2024-07-04 19:25:43,1712517972299,2,2024-07-04 21:26:12,143587,32,"task-7kgt",NA,36816537,"hcqa8",9856430,NA,"complete",NA,NA,"computer","Desktop or Laptop","Windows 10","Chrome 123.0.0.0","1920x1080","1920x1080",NA,NA,NA,"Alternating Serial Reaction Time (ASRT) task",37,"DGS",300.400000095367,NA,74,NA,NA,"serial-reaction-time",53,187399,"0.0-521.0-0.0",1,NA,"[]",NA,"[[1,1,1,1]]","[0,2]","R",1,0,48,3421,1,3,"j","j",681.100000143051,113,"X"
55,1712517944571,2024-07-04 19:25:44,1712517973188,2,2024-07-04 21:26:13,143587,32,"task-7kgt",NA,36816537,"hcqa8",9856430,NA,"complete",NA,NA,"computer","Desktop or Laptop","Windows 10","Chrome 123.0.0.0","1920x1080","1920x1080",NA,NA,NA,"Alternating Serial Reaction Time (ASRT) task",37,"DGS",376.200000047684,NA,76,NA,NA,"serial-reaction-time",54,188288,"0.0-531.0-0.0",1,NA,"[]",NA,"[[1,1,1,1]]","[0,3]","R",1,1,49,3421,1,4,"l","l",376.200000047684,134,"X"
56,1712517945496,2024-07-04 19:25:45,1712517974121,2,2024-07-04 21:26:14,143587,32,"task-7kgt",NA,36816537,"hcqa8",9856430,NA,"complete",NA,NA,"computer","Desktop or Laptop","Windows 10","Chrome 123.0.0.0","1920x1080","1920x1080",NA,NA,NA,"Alternating Serial Reaction Time (ASRT) task",37,"DGS",418.300000190735,NA,83,NA,NA,"serial-reaction-time",55,189221,"0.0-542.0-0.0",1,NA,"[]",NA,"[[1,1,1,1]]","[0,0]","R",1,1,50,3421,1,1,"s","s",418.300000190735,341,"X"
57,1712517946634,2024-07-04 19:25:46,1712517975243,2,2024-07-04 21:26:15,143587,32,"task-7kgt",NA,36816537,"hcqa8",9856430,NA,"complete",NA,NA,"computer","Desktop or Laptop","Windows 10","Chrome 123.0.0.0","1920x1080","1920x1080",NA,NA,NA,"Alternating Serial Reaction Time (ASRT) task",37,"DGS",609.100000143051,NA,74,NA,NA,"serial-reaction-time",56,190343,"0.0-553.0-0.0",1,NA,"[]",NA,"[[1,1,1,1]]","[0,2]","R",1,1,51,3421,1,3,"j","j",609.100000143051,413,"X"
58,1712517947617,2024-07-04 19:25:47,1712517976230,2,2024-07-04 21:26:16,143587,32,"task-7kgt",NA,36816537,"hcqa8",9856430,NA,"complete",NA,NA,"computer","Desktop or Laptop","Windows 10","Chrome 123.0.0.0","1920x1080","1920x1080",NA,NA,NA,"Alternating Serial Reaction Time (ASRT) task",37,"DGS",472.799999952316,NA,76,NA,NA,"serial-reaction-time",57,191330,"0.0-564.0-0.0",1,NA,"[]",NA,"[[1,1,1,1]]","[0,3]","R",1,1,52,3421,1,4,"l","l",472.799999952316,134,"X"
59,1712517948569,2024-07-04 19:25:48,1712517977187,2,2024-07-04 21:26:17,143587,32,"task-7kgt",NA,36816537,"hcqa8",9856430,NA,"complete",NA,NA,"computer","Desktop or Laptop","Windows 10","Chrome 123.0.0.0","1920x1080","1920x1080",NA,NA,NA,"Alternating Serial Reaction Time (ASRT) task",37,"DGS",441.200000047684,NA,83,NA,NA,"serial-reaction-time",58,192287,"0.0-575.0-0.0",1,NA,"[]",NA,"[[1,1,1,1]]","[0,0]","R",1,1,53,3421,1,1,"s","s",441.200000047684,341,"X"
60,1712517949470,2024-07-04 19:25:49,1712517978095,2,2024-07-04 21:26:18,143587,32,"task-7kgt",NA,36816537,"hcqa8",9856430,NA,"complete",NA,NA,"computer","Desktop or Laptop","Windows 10","Chrome 123.0.0.0","1920x1080","1920x1080",NA,NA,NA,"Alternating Serial Reaction Time (ASRT) task",37,"DGS",395.5,NA,83,NA,NA,"serial-reaction-time",59,193195,"0.0-586.0-0.0",1,NA,"[]",NA,"[[1,1,1,1]]","[0,0]","R",1,1,54,3421,1,1,"s","s",395.5,411,"X"
61,1712517950339,2024-07-04 19:25:50,1712517978953,2,2024-07-04 21:26:18,143587,32,"task-7kgt",NA,36816537,"hcqa8",9856430,NA,"complete",NA,NA,"computer","Desktop or Laptop","Windows 10","Chrome 123.0.0.0","1920x1080","1920x1080",NA,NA,NA,"Alternating Serial Reaction Time (ASRT) task",37,"DGS",330.100000143051,NA,70,NA,NA,"serial-reaction-time",60,194053,"0.0-597.0-0.0",1,NA,"[]",NA,"[[1,1,1,1]]","[0,1]","R",1,1,55,3421,1,2,"f","f",330.100000143051,112,"X"
62,1712517951407,2024-07-04 19:25:51,1712517980034,2,2024-07-04 21:26:20,143587,32,"task-7kgt",NA,36816537,"hcqa8",9856430,NA,"complete",NA,NA,"computer","Desktop or Laptop","Windows 10","Chrome 123.0.0.0","1920x1080","1920x1080",NA,NA,NA,"Alternating Serial Reaction Time (ASRT) task",37,"DGS",566.5,NA,83,NA,NA,"serial-reaction-time",61,195134,"0.0-608.0-0.0",1,NA,"[]",NA,"[[1,1,1,1]]","[0,0]","R",1,1,56,3421,1,1,"s","s",566.5,121,"X"
63,1712517952238,2024-07-04 19:25:52,1712517980849,2,2024-07-04 21:26:20,143587,32,"task-7kgt",NA,36816537,"hcqa8",9856430,NA,"complete",NA,NA,"computer","Desktop or Laptop","Windows 10","Chrome 123.0.0.0","1920x1080","1920x1080",NA,NA,NA,"Alternating Serial Reaction Time (ASRT) task",37,"DGS",303.400000095367,NA,70,NA,NA,"serial-reaction-time",62,195949,"0.0-619.0-0.0",1,NA,"[]",NA,"[[1,1,1,1]]","[0,1]","R",1,1,57,3421,1,2,"f","f",303.400000095367,212,"X"
64,1712517953184,2024-07-04 19:25:53,1712517981811,2,2024-07-04 21:26:21,143587,32,"task-7kgt",NA,36816537,"hcqa8",9856430,NA,"complete",NA,NA,"computer","Desktop or Laptop","Windows 10","Chrome 123.0.0.0","1920x1080","1920x1080",NA,NA,NA,"Alternating Serial Reaction Time (ASRT) task",37,"DGS",443.700000047684,NA,76,NA,NA,"serial-reaction-time",63,196911,"0.0-630.0-0.0",1,NA,"[]",NA,"[[1,1,1,1]]","[0,3]","R",1,1,58,3421,1,4,"l","l",443.700000047684,124,"X"
65,1712517954127,2024-07-04 19:25:54,1712517982723,2,2024-07-04 21:26:22,143587,32,"task-7kgt",NA,36816537,"hcqa8",9856430,NA,"complete",NA,NA,"computer","Desktop or Laptop","Windows 10","Chrome 123.0.0.0","1920x1080","1920x1080",NA,NA,NA,"Alternating Serial Reaction Time (ASRT) task",37,"DGS",395.399999856949,NA,74,NA,NA,"serial-reaction-time",64,197823,"0.0-641.0-0.0",1,NA,"[]",NA,"[[1,1,1,1]]","[0,2]","R",1,1,59,3421,1,3,"j","j",395.399999856949,243,"X"
66,1712517955113,2024-07-04 19:25:55,1712517983705,2,2024-07-04 21:26:23,143587,32,"task-7kgt",NA,36816537,"hcqa8",9856430,NA,"complete",NA,NA,"computer","Desktop or Laptop","Windows 10","Chrome 123.0.0.0","1920x1080","1920x1080",NA,NA,NA,"Alternating Serial Reaction Time (ASRT) task",37,"DGS",466.400000095367,NA,76,NA,NA,"serial-reaction-time",65,198804,"0.0-652.0-0.0",1,NA,"[]",NA,"[[1,1,1,1]]","[0,3]","R",1,1,60,3421,1,4,"l","l",466.400000095367,434,"X"
67,1712517955993,2024-07-04 19:25:55,1712517984619,2,2024-07-04 21:26:24,143587,32,"task-7kgt",NA,36816537,"hcqa8",9856430,NA,"complete",NA,NA,"computer","Desktop or Laptop","Windows 10","Chrome 123.0.0.0","1920x1080","1920x1080",NA,NA,NA,"Alternating Serial Reaction Time (ASRT) task",37,"DGS",399.299999952316,NA,70,NA,NA,"serial-reaction-time",66,199719,"0.0-663.0-0.0",1,NA,"[]",NA,"[[1,1,1,1]]","[0,1]","R",1,1,61,3421,1,2,"f","f",399.299999952316,342,"X"
68,1712517956937,2024-07-04 19:25:56,1712517985553,2,2024-07-04 21:26:25,143587,32,"task-7kgt",NA,36816537,"hcqa8",9856430,NA,"complete",NA,NA,"computer","Desktop or Laptop","Windows 10","Chrome 123.0.0.0","1920x1080","1920x1080",NA,NA,NA,"Alternating Serial Reaction Time (ASRT) task",37,"DGS",424.200000047684,NA,83,NA,NA,"serial-reaction-time",67,200653,"0.0-674.0-0.0",1,NA,"[]",NA,"[[1,1,1,1]]","[0,0]","R",1,1,62,3421,1,1,"s","s",424.200000047684,421,"X"
69,1712517957974,2024-07-04 19:25:57,1712517986601,2,2024-07-04 21:26:26,143587,32,"task-7kgt",NA,36816537,"hcqa8",9856430,NA,"complete",NA,NA,"computer","Desktop or Laptop","Windows 10","Chrome 123.0.0.0","1920x1080","1920x1080",NA,NA,NA,"Alternating Serial Reaction Time (ASRT) task",37,"DGS",535.699999809265,NA,76,NA,NA,"serial-reaction-time",68,201701,"0.0-685.0-0.0",1,NA,"[]",NA,"[[1,1,1,1]]","[0,3]","R",1,1,63,3421,1,4,"l","l",535.699999809265,214,"X"
70,1712517958985,2024-07-04 19:25:58,1712517987601,2,2024-07-04 21:26:27,143587,32,"task-7kgt",NA,36816537,"hcqa8",9856430,NA,"complete",NA,NA,"computer","Desktop or Laptop","Windows 10","Chrome 123.0.0.0","1920x1080","1920x1080",NA,NA,NA,"Alternating Serial Reaction Time (ASRT) task",37,"DGS",484.299999952316,NA,83,NA,NA,"serial-reaction-time",69,202701,"0.0-696.0-0.0",1,NA,"[]",NA,"[[1,1,1,1]]","[0,0]","R",1,1,64,3421,1,1,"s","s",484.299999952316,141,"X"
71,1712517959956,2024-07-04 19:25:59,1712517988574,2,2024-07-04 21:26:28,143587,32,"task-7kgt",NA,36816537,"hcqa8",9856430,NA,"complete",NA,NA,"computer","Desktop or Laptop","Windows 10","Chrome 123.0.0.0","1920x1080","1920x1080",NA,NA,NA,"Alternating Serial Reaction Time (ASRT) task",37,"DGS",459.099999904633,NA,76,NA,NA,"serial-reaction-time",70,203674,"0.0-707.0-0.0",1,NA,"[]",NA,"[[1,1,1,1]]","[0,3]","R",1,1,65,3421,1,4,"l","l",459.099999904633,414,"X"
72,1712517960912,2024-07-04 19:26:00,1712517989528,2,2024-07-04 21:26:29,143587,32,"task-7kgt",NA,36816537,"hcqa8",9856430,NA,"complete",NA,NA,"computer","Desktop or Laptop","Windows 10","Chrome 123.0.0.0","1920x1080","1920x1080",NA,NA,NA,"Alternating Serial Reaction Time (ASRT) task",37,"DGS",440.800000190735,NA,74,NA,NA,"serial-reaction-time",71,204628,"0.0-718.0-0.0",1,NA,"[]",NA,"[[1,1,1,1]]","[0,2]","R",1,1,66,3421,1,3,"j","j",440.800000190735,143,"X"
73,1712517961889,2024-07-04 19:26:01,1712517990505,2,2024-07-04 21:26:30,143587,32,"task-7kgt",NA,36816537,"hcqa8",9856430,NA,"complete",NA,NA,"computer","Desktop or Laptop","Windows 10","Chrome 123.0.0.0","1920x1080","1920x1080",NA,NA,NA,"Alternating Serial Reaction Time (ASRT) task",37,"DGS",462.800000190735,NA,76,NA,NA,"serial-reaction-time",72,205605,"0.0-729.0-0.0",1,NA,"[]",NA,"[[1,1,1,1]]","[0,3]","R",1,1,67,3421,1,4,"l","l",462.800000190735,434,"X"
74,1712517962763,2024-07-04 19:26:02,1712517991389,2,2024-07-04 21:26:31,143587,32,"task-7kgt",NA,36816537,"hcqa8",9856430,NA,"complete",NA,NA,"computer","Desktop or Laptop","Windows 10","Chrome 123.0.0.0","1920x1080","1920x1080",NA,NA,NA,"Alternating Serial Reaction Time (ASRT) task",37,"DGS",369.599999904633,NA,83,NA,NA,"serial-reaction-time",73,206489,"0.0-740.0-0.0",1,NA,"[]",NA,"[[1,1,1,1]]","[0,0]","R",1,1,68,3421,1,1,"s","s",369.599999904633,341,"X"
75,1712517963656,2024-07-04 19:26:03,1712517992273,2,2024-07-04 21:26:32,143587,32,"task-7kgt",NA,36816537,"hcqa8",9856430,NA,"complete",NA,NA,"computer","Desktop or Laptop","Windows 10","Chrome 123.0.0.0","1920x1080","1920x1080",NA,NA,NA,"Alternating Serial Reaction Time (ASRT) task",37,"DGS",368.5,NA,83,NA,NA,"serial-reaction-time",74,207373,"0.0-751.0-0.0",1,NA,"[]",NA,"[[1,1,1,1]]","[0,0]","R",1,1,69,3421,1,1,"s","s",368.5,411,"X"
76,1712517964535,2024-07-04 19:26:04,1712517993151,2,2024-07-04 21:26:33,143587,32,"task-7kgt",NA,36816537,"hcqa8",9856430,NA,"complete",NA,NA,"computer","Desktop or Laptop","Windows 10","Chrome 123.0.0.0","1920x1080","1920x1080",NA,NA,NA,"Alternating Serial Reaction Time (ASRT) task",37,"DGS",366.700000047684,NA,70,NA,NA,"serial-reaction-time",75,208251,"0.0-762.0-0.0",1,NA,"[]",NA,"[[1,1,1,1]]","[0,1]","R",1,1,70,3421,1,2,"f","f",366.700000047684,112,"X"
77,1712517965390,2024-07-04 19:26:05,1712517994004,2,2024-07-04 21:26:34,143587,32,"task-7kgt",NA,36816537,"hcqa8",9856430,NA,"complete",NA,NA,"computer","Desktop or Laptop","Windows 10","Chrome 123.0.0.0","1920x1080","1920x1080",NA,NA,NA,"Alternating Serial Reaction Time (ASRT) task",37,"DGS",344.299999952316,NA,70,NA,NA,"serial-reaction-time",76,209104,"0.0-773.0-0.0",1,NA,"[]",NA,"[[1,1,1,1]]","[0,1]","R",1,1,71,3421,1,2,"f","f",344.299999952316,122,"X"
78,1712517966274,2024-07-04 19:26:06,1712517994890,2,2024-07-04 21:26:34,143587,32,"task-7kgt",NA,36816537,"hcqa8",9856430,NA,"complete",NA,NA,"computer","Desktop or Laptop","Windows 10","Chrome 123.0.0.0","1920x1080","1920x1080",NA,NA,NA,"Alternating Serial Reaction Time (ASRT) task",37,"DGS",368.599999904633,NA,74,NA,NA,"serial-reaction-time",77,209990,"0.0-784.0-0.0",1,NA,"[]",NA,"[[1,1,1,1]]","[0,2]","R",1,1,72,3421,1,3,"j","j",368.599999904633,223,"X"
79,1712517967140,2024-07-04 19:26:07,1712517995770,2,2024-07-04 21:26:35,143587,32,"task-7kgt",NA,36816537,"hcqa8",9856430,NA,"complete",NA,NA,"computer","Desktop or Laptop","Windows 10","Chrome 123.0.0.0","1920x1080","1920x1080",NA,NA,NA,"Alternating Serial Reaction Time (ASRT) task",37,"DGS",365.899999856949,NA,83,NA,NA,"serial-reaction-time",78,210870,"0.0-795.0-0.0",1,NA,"[]",NA,"[[1,1,1,1]]","[0,0]","R",1,1,73,3421,1,1,"s","s",365.899999856949,231,"X"
80,1712517968121,2024-07-04 19:26:08,1712517996729,2,2024-07-04 21:26:36,143587,32,"task-7kgt",NA,36816537,"hcqa8",9856430,NA,"complete",NA,NA,"computer","Desktop or Laptop","Windows 10","Chrome 123.0.0.0","1920x1080","1920x1080",NA,NA,NA,"Alternating Serial Reaction Time (ASRT) task",37,"DGS",448,NA,74,NA,NA,"serial-reaction-time",79,211829,"0.0-806.0-0.0",1,NA,"[]",NA,"[[1,1,1,1]]","[0,2]","R",1,1,74,3421,1,3,"j","j",448,313,"X"
81,1712517968931,2024-07-04 19:26:08,1712517997542,2,2024-07-04 21:26:37,143587,32,"task-7kgt",NA,36816537,"hcqa8",9856430,NA,"complete",NA,NA,"computer","Desktop or Laptop","Windows 10","Chrome 123.0.0.0","1920x1080","1920x1080",NA,NA,NA,"Alternating Serial Reaction Time (ASRT) task",37,"DGS",302.400000095367,NA,83,NA,NA,"serial-reaction-time",80,212642,"0.0-817.0-0.0",1,NA,"[]",NA,"[[1,1,1,1]]","[0,0]","R",1,1,75,3421,1,1,"s","s",302.400000095367,131,"X"
82,1712517969778,2024-07-04 19:26:09,1712517998395,2,2024-07-04 21:26:38,143587,32,"task-7kgt",NA,36816537,"hcqa8",9856430,NA,"complete",NA,NA,"computer","Desktop or Laptop","Windows 10","Chrome 123.0.0.0","1920x1080","1920x1080",NA,NA,NA,"Alternating Serial Reaction Time (ASRT) task",37,"DGS",338.5,NA,83,NA,NA,"serial-reaction-time",81,213495,"0.0-828.0-0.0",1,NA,"[]",NA,"[[1,1,1,1]]","[0,0]","R",1,1,76,3421,1,1,"s","s",338.5,311,"X"
83,1712517970631,2024-07-04 19:26:10,1712517999245,2,2024-07-04 21:26:39,143587,32,"task-7kgt",NA,36816537,"hcqa8",9856430,NA,"complete",NA,NA,"computer","Desktop or Laptop","Windows 10","Chrome 123.0.0.0","1920x1080","1920x1080",NA,NA,NA,"Alternating Serial Reaction Time (ASRT) task",37,"DGS",336.299999952316,NA,83,NA,NA,"serial-reaction-time",82,214345,"0.0-839.0-0.0",1,NA,"[]",NA,"[[1,1,1,1]]","[0,0]","R",1,1,77,3421,1,1,"s","s",336.299999952316,111,"X"
84,1712517971514,2024-07-04 19:26:11,1712518000129,2,2024-07-04 21:26:40,143587,32,"task-7kgt",NA,36816537,"hcqa8",9856430,NA,"complete",NA,NA,"computer","Desktop or Laptop","Windows 10","Chrome 123.0.0.0","1920x1080","1920x1080",NA,NA,NA,"Alternating Serial Reaction Time (ASRT) task",37,"DGS",374.099999904633,NA,70,NA,NA,"serial-reaction-time",83,215229,"0.0-850.0-0.0",1,NA,"[]",NA,"[[1,1,1,1]]","[0,1]","R",1,1,78,3421,1,2,"f","f",374.099999904633,112,"X"
85,1712517972324,2024-07-04 19:26:12,1712518000942,2,2024-07-04 21:26:40,143587,32,"task-7kgt",NA,36816537,"hcqa8",9856430,NA,"complete",NA,NA,"computer","Desktop or Laptop","Windows 10","Chrome 123.0.0.0","1920x1080","1920x1080",NA,NA,NA,"Alternating Serial Reaction Time (ASRT) task",37,"DGS",299.800000190735,NA,70,NA,NA,"serial-reaction-time",84,216042,"0.0-861.0-0.0",1,NA,"[]",NA,"[[1,1,1,1]]","[0,1]","R",1,1,79,3421,1,2,"f","f",299.800000190735,122,"X"
86,1712517973251,2024-07-04 19:26:13,1712518001864,2,2024-07-04 21:26:41,143587,32,"task-7kgt",NA,36816537,"hcqa8",9856430,NA,"complete",NA,NA,"computer","Desktop or Laptop","Windows 10","Chrome 123.0.0.0","1920x1080","1920x1080",NA,NA,NA,"Alternating Serial Reaction Time (ASRT) task",37,"DGS",405.799999952316,NA,74,NA,NA,"serial-reaction-time",85,216964,"0.0-872.0-0.0",1,NA,"[]",NA,"[[1,1,1,1]]","[0,2]","R",1,1,80,3421,1,3,"j","j",405.799999952316,223,"X"
87,1712517974150,2024-07-04 19:26:14,1712518002766,2,2024-07-04 21:26:42,143587,32,"task-7kgt",NA,36816537,"hcqa8",9856430,NA,"complete",NA,NA,"computer","Desktop or Laptop","Windows 10","Chrome 123.0.0.0","1920x1080","1920x1080",NA,NA,NA,"Alternating Serial Reaction Time (ASRT) task",37,"DGS",388.200000047684,NA,70,NA,NA,"serial-reaction-time",86,217866,"0.0-883.0-0.0",1,NA,"[]",NA,"[[1,1,1,1]]","[0,1]","R",1,1,81,3421,1,2,"f","f",388.200000047684,232,"X"
88,1712517975035,2024-07-04 19:26:15,1712518003646,2,2024-07-04 21:26:43,143587,32,"task-7kgt",NA,36816537,"hcqa8",9856430,NA,"complete",NA,NA,"computer","Desktop or Laptop","Windows 10","Chrome 123.0.0.0","1920x1080","1920x1080",NA,NA,NA,"Alternating Serial Reaction Time (ASRT) task",37,"DGS",370.5,NA,76,NA,NA,"serial-reaction-time",87,218746,"0.0-894.0-0.0",1,NA,"[]",NA,"[[1,1,1,1]]","[0,3]","R",1,1,82,3421,1,4,"l","l",370.5,324,"X"
89,1712517975909,2024-07-04 19:26:15,1712518004525,2,2024-07-04 21:26:44,143587,32,"task-7kgt",NA,36816537,"hcqa8",9856430,NA,"complete",NA,NA,"computer","Desktop or Laptop","Windows 10","Chrome 123.0.0.0","1920x1080","1920x1080",NA,NA,NA,"Alternating Serial Reaction Time (ASRT) task",37,"DGS",366.700000047684,NA,76,NA,NA,"serial-reaction-time",88,219625,"0.0-905.0-0.0",1,NA,"[]",NA,"[[1,1,1,1]]","[0,3]","R",1,1,83,3421,1,4,"l","l",366.700000047684,244,"X"
90,1712517976900,2024-07-04 19:26:16,1712518005513,2,2024-07-04 21:26:45,143587,32,"task-7kgt",NA,36816537,"hcqa8",9856430,NA,"complete",NA,NA,"computer","Desktop or Laptop","Windows 10","Chrome 123.0.0.0","1920x1080","1920x1080",NA,NA,NA,"Alternating Serial Reaction Time (ASRT) task",37,"DGS",471.200000047684,NA,83,NA,NA,"serial-reaction-time",89,220613,"0.0-916.0-0.0",1,NA,"[]",NA,"[[1,1,1,1]]","[0,0]","R",1,1,84,3421,1,1,"s","s",471.200000047684,441,"X"
91,1712517977745,2024-07-04 19:26:17,1712518006360,2,2024-07-04 21:26:46,143587,32,"task-7kgt",NA,36816537,"hcqa8",9856430,NA,"complete",NA,NA,"computer","Desktop or Laptop","Windows 10","Chrome 123.0.0.0","1920x1080","1920x1080",NA,NA,NA,"Alternating Serial Reaction Time (ASRT) task",37,"DGS",333.799999952316,NA,83,NA,NA,"serial-reaction-time",90,221460,"0.0-927.0-0.0",1,NA,"[]",NA,"[[1,1,1,1]]","[0,0]","R",1,1,85,3421,1,1,"s","s",333.799999952316,411,"X"
92,1712517982760,2024-07-04 19:26:22,1712518011375,2,2024-07-04 21:26:51,143587,32,"task-7kgt",NA,36816537,"hcqa8",9856430,NA,"complete",NA,NA,"computer","Desktop or Laptop","Windows 10","Chrome 123.0.0.0","1920x1080","1920x1080",NA,NA,NA,"Alternating Serial Reaction Time (ASRT) task",37,"DGS",NA,"<h2>End of block 1</h2><br><p>Your accuracy: 96%</p><p>Your average response time: 401 ms</p><br><p class='message'><strong>Please try to be faster.</strong></p>",NA,NA,NA,"html-keyboard-response",91,226475,"0.0-938.0",NA,NA,"[]",NA,NA,NA,NA,NA,NA,NA,NA,NA,NA,NA,NA,NA,NA,NA
93,1712517983869,2024-07-04 19:26:23,1712518012485,2,2024-07-04 21:26:52,143587,32,"task-7kgt",NA,36816537,"hcqa8",9856430,NA,"complete",NA,NA,"computer","Desktop or Laptop","Windows 10","Chrome 123.0.0.0","1920x1080","1920x1080",NA,NA,NA,"Alternating Serial Reaction Time (ASRT) task",37,"DGS",NA,"
    <p>Please place your fingers in this position on the keyboard:</p>
    <img src=/task/663873/37/asset/keyboard.bmp height='10%'>
    <h2>Please stay, the task will continue in a few seconds.<br><br>Please, when the first dog appears, continue the task immediately!</h2>",NA,NA,NA,"html-keyboard-response",92,227585,"0.0-939.0",NA,NA,"[]",NA,NA,NA,NA,NA,NA,NA,NA,NA,NA,NA,NA,NA,NA,NA
94,1712517984475,2024-07-04 19:26:24,1712518013089,2,2024-07-04 21:26:53,143587,32,"task-7kgt",NA,36816537,"hcqa8",9856430,NA,"complete",NA,NA,"computer","Desktop or Laptop","Windows 10","Chrome 123.0.0.0","1920x1080","1920x1080",NA,NA,NA,"Alternating Serial Reaction Time (ASRT) task",37,"DGS",583.099999904633,NA,83,NA,NA,"serial-reaction-time",93,228189,"0.0-940.0-0.0",1,NA,"[]",NA,"[[1,1,1,1]]","[0,0]","R",2,1,1,3421,1,1,"s","s",583.099999904633,1,"X"
95,1712517985332,2024-07-04 19:26:25,1712518013959,2,2024-07-04 21:26:53,143587,32,"task-7kgt",NA,36816537,"hcqa8",9856430,NA,"complete",NA,NA,"computer","Desktop or Laptop","Windows 10","Chrome 123.0.0.0","1920x1080","1920x1080",NA,NA,NA,"Alternating Serial Reaction Time (ASRT) task",37,"DGS",360.599999904633,NA,70,NA,NA,"serial-reaction-time",94,229059,"0.0-951.0-0.0",1,NA,"[]",NA,"[[1,1,1,1]]","[0,1]","R",2,1,2,3421,1,2,"f","f",360.599999904633,12,"X"
96,1712517986243,2024-07-04 19:26:26,1712518014769,2,2024-07-04 21:26:54,143587,32,"task-7kgt",NA,36816537,"hcqa8",9856430,NA,"complete",NA,NA,"computer","Desktop or Laptop","Windows 10","Chrome 123.0.0.0","1920x1080","1920x1080",NA,NA,NA,"Alternating Serial Reaction Time (ASRT) task",37,"DGS",287.700000047684,NA,76,NA,NA,"serial-reaction-time",95,229869,"0.0-962.0-0.0",1,NA,"[]",NA,"[[1,1,1,1]]","[0,3]","R",2,1,3,3421,1,4,"l","l",287.700000047684,124,"X"
97,1712517987001,2024-07-04 19:26:27,1712518015603,2,2024-07-04 21:26:55,143587,32,"task-7kgt",NA,36816537,"hcqa8",9856430,NA,"complete",NA,NA,"computer","Desktop or Laptop","Windows 10","Chrome 123.0.0.0","1920x1080","1920x1080",NA,NA,NA,"Alternating Serial Reaction Time (ASRT) task",37,"DGS",323.900000095367,NA,74,NA,NA,"serial-reaction-time",96,230703,"0.0-973.0-0.0",1,NA,"[]",NA,"[[1,1,1,1]]","[0,2]","R",2,1,4,3421,1,3,"j","j",323.900000095367,243,"X"
98,1712517987889,2024-07-04 19:26:27,1712518016396,2,2024-07-04 21:26:56,143587,32,"task-7kgt",NA,36816537,"hcqa8",9856430,NA,"complete",NA,NA,"computer","Desktop or Laptop","Windows 10","Chrome 123.0.0.0","1920x1080","1920x1080",NA,NA,NA,"Alternating Serial Reaction Time (ASRT) task",37,"DGS",283.700000047684,NA,83,NA,NA,"serial-reaction-time",97,231496,"0.0-984.0-0.0",1,NA,"[]",NA,"[[1,1,1,1]]","[0,0]","R",2,1,5,3421,1,1,"s","s",283.700000047684,431,"X"
99,1712517988638,2024-07-04 19:26:28,1712518017253,2,2024-07-04 21:26:57,143587,32,"task-7kgt",NA,36816537,"hcqa8",9856430,NA,"complete",NA,NA,"computer","Desktop or Laptop","Windows 10","Chrome 123.0.0.0","1920x1080","1920x1080",NA,NA,NA,"Alternating Serial Reaction Time (ASRT) task",37,"DGS",340.799999952316,NA,76,NA,NA,"serial-reaction-time",98,232353,"0.0-995.0-0.0",1,NA,"[]",NA,"[[1,1,1,1]]","[0,3]","R",2,1,6,3421,1,4,"l","l",340.799999952316,314,"X"
100,1712517989486,2024-07-04 19:26:29,1712518018095,2,2024-07-04 21:26:58,143587,32,"task-7kgt",NA,36816537,"hcqa8",9856430,NA,"complete",NA,NA,"computer","Desktop or Laptop","Windows 10","Chrome 123.0.0.0","1920x1080","1920x1080",NA,NA,NA,"Alternating Serial Reaction Time (ASRT) task",37,"DGS",326.799999952316,NA,83,NA,NA,"serial-reaction-time",99,233195,"0.0-1006.0-0.0",1,NA,"[]",NA,"[[1,1,1,1]]","[0,0]","R",2,1,7,3421,1,1,"s","s",326.799999952316,141,"X"
101,1712517990373,2024-07-04 19:26:30,1712518018988,2,2024-07-04 21:26:58,143587,32,"task-7kgt",NA,36816537,"hcqa8",9856430,NA,"complete",NA,NA,"computer","Desktop or Laptop","Windows 10","Chrome 123.0.0.0","1920x1080","1920x1080",NA,NA,NA,"Alternating Serial Reaction Time (ASRT) task",37,"DGS",379.399999856949,NA,74,NA,NA,"serial-reaction-time",100,234088,"0.0-1017.0-0.0",NA,NA,"[]",NA,"[[1,1,1,1]]","[0,3]","R",2,1,8,3421,1,4,"l","j",379.399999856949,414,"X"
102,1712517990597,2024-07-04 19:26:30,1712518019017,2,2024-07-04 21:26:59,143587,32,"task-7kgt",NA,36816537,"hcqa8",9856430,NA,"complete",NA,NA,"computer","Desktop or Laptop","Windows 10","Chrome 123.0.0.0","1920x1080","1920x1080",NA,NA,NA,"Alternating Serial Reaction Time (ASRT) task",37,"DGS",17.1999998092651,NA,76,NA,NA,"serial-reaction-time",101,234117,"0.0-1018.0-0.0",1,NA,"[]",NA,"[[1,1,1,1]]","[0,3]","R",2,0,8,3421,1,4,"l","l",396.599999666214,414,"X"
103,1712517991327,2024-07-04 19:26:31,1712518019943,2,2024-07-04 21:26:59,143587,32,"task-7kgt",NA,36816537,"hcqa8",9856430,NA,"complete",NA,NA,"computer","Desktop or Laptop","Windows 10","Chrome 123.0.0.0","1920x1080","1920x1080",NA,NA,NA,"Alternating Serial Reaction Time (ASRT) task",37,"DGS",410.399999856949,NA,70,NA,NA,"serial-reaction-time",102,235043,"0.0-1028.0-0.0",1,NA,"[]",NA,"[[1,1,1,1]]","[0,1]","R",2,1,9,3421,1,2,"f","f",410.399999856949,142,"X"
104,1712517992304,2024-07-04 19:26:32,1712518020841,2,2024-07-04 21:27:00,143587,32,"task-7kgt",NA,36816537,"hcqa8",9856430,NA,"complete",NA,NA,"computer","Desktop or Laptop","Windows 10","Chrome 123.0.0.0","1920x1080","1920x1080",NA,NA,NA,"Alternating Serial Reaction Time (ASRT) task",37,"DGS",389.5,NA,70,NA,NA,"serial-reaction-time",103,235941,"0.0-1039.0-0.0",NA,NA,"[]",NA,"[[1,1,1,1]]","[0,0]","R",2,1,10,3421,1,1,"s","f",389.5,421,"X"
105,1712517992421,2024-07-04 19:26:32,1712518021041,2,2024-07-04 21:27:01,143587,32,"task-7kgt",NA,36816537,"hcqa8",9856430,NA,"complete",NA,NA,"computer","Desktop or Laptop","Windows 10","Chrome 123.0.0.0","1920x1080","1920x1080",NA,NA,NA,"Alternating Serial Reaction Time (ASRT) task",37,"DGS",188.5,NA,83,NA,NA,"serial-reaction-time",104,236141,"0.0-1040.0-0.0",1,NA,"[]",NA,"[[1,1,1,1]]","[0,0]","R",2,0,10,3421,1,1,"s","s",578,421,"X"
106,1712517993504,2024-07-04 19:26:33,1712518022122,2,2024-07-04 21:27:02,143587,32,"task-7kgt",NA,36816537,"hcqa8",9856430,NA,"complete",NA,NA,"computer","Desktop or Laptop","Windows 10","Chrome 123.0.0.0","1920x1080","1920x1080",NA,NA,NA,"Alternating Serial Reaction Time (ASRT) task",37,"DGS",562.5,NA,74,NA,NA,"serial-reaction-time",105,237222,"0.0-1050.0-0.0",1,NA,"[]",NA,"[[1,1,1,1]]","[0,2]","R",2,1,11,3421,1,3,"j","j",562.5,213,"X"
107,1712517994347,2024-07-04 19:26:34,1712518022962,2,2024-07-04 21:27:02,143587,32,"task-7kgt",NA,36816537,"hcqa8",9856430,NA,"complete",NA,NA,"computer","Desktop or Laptop","Windows 10","Chrome 123.0.0.0","1920x1080","1920x1080",NA,NA,NA,"Alternating Serial Reaction Time (ASRT) task",37,"DGS",322.099999904633,NA,83,NA,NA,"serial-reaction-time",106,238062,"0.0-1061.0-0.0",1,NA,"[]",NA,"[[1,1,1,1]]","[0,0]","R",2,1,12,3421,1,1,"s","s",322.099999904633,131,"X"
108,1712517995154,2024-07-04 19:26:35,1712518023774,2,2024-07-04 21:27:03,143587,32,"task-7kgt",NA,36816537,"hcqa8",9856430,NA,"complete",NA,NA,"computer","Desktop or Laptop","Windows 10","Chrome 123.0.0.0","1920x1080","1920x1080",NA,NA,NA,"Alternating Serial Reaction Time (ASRT) task",37,"DGS",295.299999952316,NA,83,NA,NA,"serial-reaction-time",107,238874,"0.0-1072.0-0.0",1,NA,"[]",NA,"[[1,1,1,1]]","[0,0]","R",2,1,13,3421,1,1,"s","s",295.299999952316,311,"X"
109,1712517996064,2024-07-04 19:26:36,1712518024680,2,2024-07-04 21:27:04,143587,32,"task-7kgt",NA,36816537,"hcqa8",9856430,NA,"complete",NA,NA,"computer","Desktop or Laptop","Windows 10","Chrome 123.0.0.0","1920x1080","1920x1080",NA,NA,NA,"Alternating Serial Reaction Time (ASRT) task",37,"DGS",392.599999904633,NA,74,NA,NA,"serial-reaction-time",108,239780,"0.0-1083.0-0.0",1,NA,"[]",NA,"[[1,1,1,1]]","[0,2]","R",2,1,14,3421,1,3,"j","j",392.599999904633,113,"X"
110,1712517996895,2024-07-04 19:26:36,1712518025508,2,2024-07-04 21:27:05,143587,32,"task-7kgt",NA,36816537,"hcqa8",9856430,NA,"complete",NA,NA,"computer","Desktop or Laptop","Windows 10","Chrome 123.0.0.0","1920x1080","1920x1080",NA,NA,NA,"Alternating Serial Reaction Time (ASRT) task",37,"DGS",312.699999809265,NA,74,NA,NA,"serial-reaction-time",109,240607,"0.0-1094.0-0.0",1,NA,"[]",NA,"[[1,1,1,1]]","[0,2]","R",2,1,15,3421,1,3,"j","j",312.699999809265,133,"X"
111,1712517997735,2024-07-04 19:26:37,1712518026347,2,2024-07-04 21:27:06,143587,32,"task-7kgt",NA,36816537,"hcqa8",9856430,NA,"complete",NA,NA,"computer","Desktop or Laptop","Windows 10","Chrome 123.0.0.0","1920x1080","1920x1080",NA,NA,NA,"Alternating Serial Reaction Time (ASRT) task",37,"DGS",324,NA,74,NA,NA,"serial-reaction-time",110,241446,"0.0-1105.0-0.0",1,NA,"[]",NA,"[[1,1,1,1]]","[0,2]","R",2,1,16,3421,1,3,"j","j",324,333,"X"
112,1712517998968,2024-07-04 19:26:38,1712518027214,2,2024-07-04 21:27:07,143587,32,"task-7kgt",NA,36816537,"hcqa8",9856430,NA,"complete",NA,NA,"computer","Desktop or Laptop","Windows 10","Chrome 123.0.0.0","1920x1080","1920x1080",NA,NA,NA,"Alternating Serial Reaction Time (ASRT) task",37,"DGS",349.200000047684,NA,70,NA,NA,"serial-reaction-time",111,242314,"0.0-1116.0-0.0",1,NA,"[]",NA,"[[1,1,1,1]]","[0,1]","R",2,1,17,3421,1,2,"f","f",349.200000047684,332,"X"
113,1712517999392,2024-07-04 19:26:39,1712518028011,2,2024-07-04 21:27:08,143587,32,"task-7kgt",NA,36816537,"hcqa8",9856430,NA,"complete",NA,NA,"computer","Desktop or Laptop","Windows 10","Chrome 123.0.0.0","1920x1080","1920x1080",NA,NA,NA,"Alternating Serial Reaction Time (ASRT) task",37,"DGS",282.700000047684,NA,76,NA,NA,"serial-reaction-time",112,243111,"0.0-1127.0-0.0",1,NA,"[]",NA,"[[1,1,1,1]]","[0,3]","R",2,1,18,3421,1,4,"l","l",282.700000047684,324,"X"
114,1712518000226,2024-07-04 19:26:40,1712518028843,2,2024-07-04 21:27:08,143587,32,"task-7kgt",NA,36816537,"hcqa8",9856430,NA,"complete",NA,NA,"computer","Desktop or Laptop","Windows 10","Chrome 123.0.0.0","1920x1080","1920x1080",NA,NA,NA,"Alternating Serial Reaction Time (ASRT) task",37,"DGS",316.5,NA,70,NA,NA,"serial-reaction-time",113,243943,"0.0-1138.0-0.0",1,NA,"[]",NA,"[[1,1,1,1]]","[0,1]","R",2,1,19,3421,1,2,"f","f",316.5,242,"X"
115,1712518000956,2024-07-04 19:26:40,1712518029582,2,2024-07-04 21:27:09,143587,32,"task-7kgt",NA,36816537,"hcqa8",9856430,NA,"complete",NA,NA,"computer","Desktop or Laptop","Windows 10","Chrome 123.0.0.0","1920x1080","1920x1080",NA,NA,NA,"Alternating Serial Reaction Time (ASRT) task",37,"DGS",229.299999952316,NA,70,NA,NA,"serial-reaction-time",114,244682,"0.0-1149.0-0.0",1,NA,"[]",NA,"[[1,1,1,1]]","[0,1]","R",2,1,20,3421,1,2,"f","f",229.299999952316,422,"X"
116,1712518001725,2024-07-04 19:26:41,1712518030340,2,2024-07-04 21:27:10,143587,32,"task-7kgt",NA,36816537,"hcqa8",9856430,NA,"complete",NA,NA,"computer","Desktop or Laptop","Windows 10","Chrome 123.0.0.0","1920x1080","1920x1080",NA,NA,NA,"Alternating Serial Reaction Time (ASRT) task",37,"DGS",238.900000095367,NA,83,NA,NA,"serial-reaction-time",115,245440,"0.0-1160.0-0.0",1,NA,"[]",NA,"[[1,1,1,1]]","[0,0]","R",2,1,21,3421,1,1,"s","s",238.900000095367,221,"X"
117,1712518002541,2024-07-04 19:26:42,1712518031158,2,2024-07-04 21:27:11,143587,32,"task-7kgt",NA,36816537,"hcqa8",9856430,NA,"complete",NA,NA,"computer","Desktop or Laptop","Windows 10","Chrome 123.0.0.0","1920x1080","1920x1080",NA,NA,NA,"Alternating Serial Reaction Time (ASRT) task",37,"DGS",299.099999904633,NA,83,NA,NA,"serial-reaction-time",116,246257,"0.0-1171.0-0.0",1,NA,"[]",NA,"[[1,1,1,1]]","[0,0]","R",2,1,22,3421,1,1,"s","s",299.099999904633,211,"X"
118,1712518003353,2024-07-04 19:26:43,1712518031977,2,2024-07-04 21:27:11,143587,32,"task-7kgt",NA,36816537,"hcqa8",9856430,NA,"complete",NA,NA,"computer","Desktop or Laptop","Windows 10","Chrome 123.0.0.0","1920x1080","1920x1080",NA,NA,NA,"Alternating Serial Reaction Time (ASRT) task",37,"DGS",304.700000047684,NA,70,NA,NA,"serial-reaction-time",117,247077,"0.0-1182.0-0.0",1,NA,"[]",NA,"[[1,1,1,1]]","[0,1]","R",2,1,23,3421,1,2,"f","f",304.700000047684,112,"X"
119,1712518004131,2024-07-04 19:26:44,1712518032754,2,2024-07-04 21:27:12,143587,32,"task-7kgt",NA,36816537,"hcqa8",9856430,NA,"complete",NA,NA,"computer","Desktop or Laptop","Windows 10","Chrome 123.0.0.0","1920x1080","1920x1080",NA,NA,NA,"Alternating Serial Reaction Time (ASRT) task",37,"DGS",267.299999952316,NA,76,NA,NA,"serial-reaction-time",118,247854,"0.0-1193.0-0.0",1,NA,"[]",NA,"[[1,1,1,1]]","[0,3]","R",2,1,24,3421,1,4,"l","l",267.299999952316,124,"X"
120,1712518004951,2024-07-04 19:26:44,1712518033565,2,2024-07-04 21:27:13,143587,32,"task-7kgt",NA,36816537,"hcqa8",9856430,NA,"complete",NA,NA,"computer","Desktop or Laptop","Windows 10","Chrome 123.0.0.0","1920x1080","1920x1080",NA,NA,NA,"Alternating Serial Reaction Time (ASRT) task",37,"DGS",299,NA,76,NA,NA,"serial-reaction-time",119,248665,"0.0-1204.0-0.0",1,NA,"[]",NA,"[[1,1,1,1]]","[0,3]","R",2,1,25,3421,1,4,"l","l",299,244,"X"
121,1712518005883,2024-07-04 19:26:45,1712518034496,2,2024-07-04 21:27:14,143587,32,"task-7kgt",NA,36816537,"hcqa8",9856430,NA,"complete",NA,NA,"computer","Desktop or Laptop","Windows 10","Chrome 123.0.0.0","1920x1080","1920x1080",NA,NA,NA,"Alternating Serial Reaction Time (ASRT) task",37,"DGS",409.5,NA,74,NA,NA,"serial-reaction-time",120,249596,"0.0-1215.0-0.0",1,NA,"[]",NA,"[[1,1,1,1]]","[0,2]","R",2,1,26,3421,1,3,"j","j",409.5,443,"X"
122,1712518006714,2024-07-04 19:26:46,1712518035318,2,2024-07-04 21:27:15,143587,32,"task-7kgt",NA,36816537,"hcqa8",9856430,NA,"complete",NA,NA,"computer","Desktop or Laptop","Windows 10","Chrome 123.0.0.0","1920x1080","1920x1080",NA,NA,NA,"Alternating Serial Reaction Time (ASRT) task",37,"DGS",299.900000095367,NA,74,NA,NA,"serial-reaction-time",121,250418,"0.0-1226.0-0.0",NA,NA,"[]",NA,"[[1,1,1,1]]","[0,3]","R",2,1,27,3421,1,4,"l","j",299.900000095367,434,"X"
123,1712518006918,2024-07-04 19:26:46,1712518035531,2,2024-07-04 21:27:15,143587,32,"task-7kgt",NA,36816537,"hcqa8",9856430,NA,"complete",NA,NA,"computer","Desktop or Laptop","Windows 10","Chrome 123.0.0.0","1920x1080","1920x1080",NA,NA,NA,"Alternating Serial Reaction Time (ASRT) task",37,"DGS",198.599999904633,NA,76,NA,NA,"serial-reaction-time",122,250631,"0.0-1227.0-0.0",1,NA,"[]",NA,"[[1,1,1,1]]","[0,3]","R",2,0,27,3421,1,4,"l","l",498.5,434,"X"
124,1712518007876,2024-07-04 19:26:47,1712518036484,2,2024-07-04 21:27:16,143587,32,"task-7kgt",NA,36816537,"hcqa8",9856430,NA,"complete",NA,NA,"computer","Desktop or Laptop","Windows 10","Chrome 123.0.0.0","1920x1080","1920x1080",NA,NA,NA,"Alternating Serial Reaction Time (ASRT) task",37,"DGS",437.400000095367,NA,70,NA,NA,"serial-reaction-time",123,251584,"0.0-1237.0-0.0",1,NA,"[]",NA,"[[1,1,1,1]]","[0,1]","R",2,1,28,3421,1,2,"f","f",437.400000095367,342,"X"
125,1712518008688,2024-07-04 19:26:48,1712518037284,2,2024-07-04 21:27:17,143587,32,"task-7kgt",NA,36816537,"hcqa8",9856430,NA,"complete",NA,NA,"computer","Desktop or Laptop","Windows 10","Chrome 123.0.0.0","1920x1080","1920x1080",NA,NA,NA,"Alternating Serial Reaction Time (ASRT) task",37,"DGS",283.299999952316,NA,70,NA,NA,"serial-reaction-time",124,252384,"0.0-1248.0-0.0",1,NA,"[]",NA,"[[1,1,1,1]]","[0,1]","R",2,1,29,3421,1,2,"f","f",283.299999952316,422,"X"
126,1712518009470,2024-07-04 19:26:49,1712518038079,2,2024-07-04 21:27:18,143587,32,"task-7kgt",NA,36816537,"hcqa8",9856430,NA,"complete",NA,NA,"computer","Desktop or Laptop","Windows 10","Chrome 123.0.0.0","1920x1080","1920x1080",NA,NA,NA,"Alternating Serial Reaction Time (ASRT) task",37,"DGS",280.199999809265,NA,74,NA,NA,"serial-reaction-time",125,253179,"0.0-1259.0-0.0",NA,NA,"[]",NA,"[[1,1,1,1]]","[0,3]","R",2,1,30,3421,1,4,"l","j",280.199999809265,224,"X"
127,1712518009671,2024-07-04 19:26:49,1712518038295,2,2024-07-04 21:27:18,143587,32,"task-7kgt",NA,36816537,"hcqa8",9856430,NA,"complete",NA,NA,"computer","Desktop or Laptop","Windows 10","Chrome 123.0.0.0","1920x1080","1920x1080",NA,NA,NA,"Alternating Serial Reaction Time (ASRT) task",37,"DGS",207.699999809265,NA,76,NA,NA,"serial-reaction-time",126,253395,"0.0-1260.0-0.0",1,NA,"[]",NA,"[[1,1,1,1]]","[0,3]","R",2,0,30,3421,1,4,"l","l",487.89999961853,224,"X"
128,1712518010642,2024-07-04 19:26:50,1712518039266,2,2024-07-04 21:27:19,143587,32,"task-7kgt",NA,36816537,"hcqa8",9856430,NA,"complete",NA,NA,"computer","Desktop or Laptop","Windows 10","Chrome 123.0.0.0","1920x1080","1920x1080",NA,NA,NA,"Alternating Serial Reaction Time (ASRT) task",37,"DGS",458.400000095367,NA,83,NA,NA,"serial-reaction-time",127,254366,"0.0-1270.0-0.0",1,NA,"[]",NA,"[[1,1,1,1]]","[0,0]","R",2,1,31,3421,1,1,"s","s",458.400000095367,241,"X"
129,1712518011568,2024-07-04 19:26:51,1712518040183,2,2024-07-04 21:27:20,143587,32,"task-7kgt",NA,36816537,"hcqa8",9856430,NA,"complete",NA,NA,"computer","Desktop or Laptop","Windows 10","Chrome 123.0.0.0","1920x1080","1920x1080",NA,NA,NA,"Alternating Serial Reaction Time (ASRT) task",37,"DGS",408.299999952316,NA,76,NA,NA,"serial-reaction-time",128,255283,"0.0-1281.0-0.0",1,NA,"[]",NA,"[[1,1,1,1]]","[0,3]","R",2,1,32,3421,1,4,"l","l",408.299999952316,414,"X"
130,1712518012527,2024-07-04 19:26:52,1712518041143,2,2024-07-04 21:27:21,143587,32,"task-7kgt",NA,36816537,"hcqa8",9856430,NA,"complete",NA,NA,"computer","Desktop or Laptop","Windows 10","Chrome 123.0.0.0","1920x1080","1920x1080",NA,NA,NA,"Alternating Serial Reaction Time (ASRT) task",37,"DGS",450.200000047684,NA,74,NA,NA,"serial-reaction-time",129,256243,"0.0-1292.0-0.0",1,NA,"[]",NA,"[[1,1,1,1]]","[0,2]","R",2,1,33,3421,1,3,"j","j",450.200000047684,143,"X"
131,1712518013301,2024-07-04 19:26:53,1712518041917,2,2024-07-04 21:27:21,143587,32,"task-7kgt",NA,36816537,"hcqa8",9856430,NA,"complete",NA,NA,"computer","Desktop or Laptop","Windows 10","Chrome 123.0.0.0","1920x1080","1920x1080",NA,NA,NA,"Alternating Serial Reaction Time (ASRT) task",37,"DGS",254.900000095367,NA,83,NA,NA,"serial-reaction-time",130,257017,"0.0-1303.0-0.0",1,NA,"[]",NA,"[[1,1,1,1]]","[0,0]","R",2,1,34,3421,1,1,"s","s",254.900000095367,431,"X"
132,1712518014340,2024-07-04 19:26:54,1712518042823,2,2024-07-04 21:27:22,143587,32,"task-7kgt",NA,36816537,"hcqa8",9856430,NA,"complete",NA,NA,"computer","Desktop or Laptop","Windows 10","Chrome 123.0.0.0","1920x1080","1920x1080",NA,NA,NA,"Alternating Serial Reaction Time (ASRT) task",37,"DGS",395.5,NA,76,NA,NA,"serial-reaction-time",131,257923,"0.0-1314.0-0.0",1,NA,"[]",NA,"[[1,1,1,1]]","[0,3]","R",2,1,35,3421,1,4,"l","l",395.5,314,"X"
133,1712518014994,2024-07-04 19:26:54,1712518043615,2,2024-07-04 21:27:23,143587,32,"task-7kgt",NA,36816537,"hcqa8",9856430,NA,"complete",NA,NA,"computer","Desktop or Laptop","Windows 10","Chrome 123.0.0.0","1920x1080","1920x1080",NA,NA,NA,"Alternating Serial Reaction Time (ASRT) task",37,"DGS",277.200000047684,NA,83,NA,NA,"serial-reaction-time",132,258715,"0.0-1325.0-0.0",1,NA,"[]",NA,"[[1,1,1,1]]","[0,0]","R",2,1,36,3421,1,1,"s","s",277.200000047684,141,"X"
134,1712518015806,2024-07-04 19:26:55,1712518044420,2,2024-07-04 21:27:24,143587,32,"task-7kgt",NA,36816537,"hcqa8",9856430,NA,"complete",NA,NA,"computer","Desktop or Laptop","Windows 10","Chrome 123.0.0.0","1920x1080","1920x1080",NA,NA,NA,"Alternating Serial Reaction Time (ASRT) task",37,"DGS",290.5,NA,83,NA,NA,"serial-reaction-time",133,259520,"0.0-1336.0-0.0",NA,NA,"[]",NA,"[[1,1,1,1]]","[0,1]","R",2,1,37,3421,1,2,"f","s",290.5,412,"X"
135,1712518016102,2024-07-04 19:26:56,1712518044720,2,2024-07-04 21:27:24,143587,32,"task-7kgt",NA,36816537,"hcqa8",9856430,NA,"complete",NA,NA,"computer","Desktop or Laptop","Windows 10","Chrome 123.0.0.0","1920x1080","1920x1080",NA,NA,NA,"Alternating Serial Reaction Time (ASRT) task",37,"DGS",291.599999904633,NA,70,NA,NA,"serial-reaction-time",134,259820,"0.0-1337.0-0.0",1,NA,"[]",NA,"[[1,1,1,1]]","[0,1]","R",2,0,37,3421,1,2,"f","f",582.099999904633,412,"X"
136,1712518016932,2024-07-04 19:26:56,1712518045554,2,2024-07-04 21:27:25,143587,32,"task-7kgt",NA,36816537,"hcqa8",9856430,NA,"complete",NA,NA,"computer","Desktop or Laptop","Windows 10","Chrome 123.0.0.0","1920x1080","1920x1080",NA,NA,NA,"Alternating Serial Reaction Time (ASRT) task",37,"DGS",317.200000047684,NA,70,NA,NA,"serial-reaction-time",135,260654,"0.0-1347.0-0.0",1,NA,"[]",NA,"[[1,1,1,1]]","[0,1]","R",2,1,38,3421,1,2,"f","f",317.200000047684,122,"X"
137,1712518017741,2024-07-04 19:26:57,1712518046362,2,2024-07-04 21:27:26,143587,32,"task-7kgt",NA,36816537,"hcqa8",9856430,NA,"complete",NA,NA,"computer","Desktop or Laptop","Windows 10","Chrome 123.0.0.0","1920x1080","1920x1080",NA,NA,NA,"Alternating Serial Reaction Time (ASRT) task",37,"DGS",296.700000047684,NA,70,NA,NA,"serial-reaction-time",136,261462,"0.0-1358.0-0.0",1,NA,"[]",NA,"[[1,1,1,1]]","[0,1]","R",2,1,39,3421,1,2,"f","f",296.700000047684,222,"X"
138,1712518018502,2024-07-04 19:26:58,1712518047123,2,2024-07-04 21:27:27,143587,32,"task-7kgt",NA,36816537,"hcqa8",9856430,NA,"complete",NA,NA,"computer","Desktop or Laptop","Windows 10","Chrome 123.0.0.0","1920x1080","1920x1080",NA,NA,NA,"Alternating Serial Reaction Time (ASRT) task",37,"DGS",251.5,NA,76,NA,NA,"serial-reaction-time",137,262223,"0.0-1369.0-0.0",1,NA,"[]",NA,"[[1,1,1,1]]","[0,3]","R",2,1,40,3421,1,4,"l","l",251.5,224,"X"
139,1712518019443,2024-07-04 19:26:59,1712518048057,2,2024-07-04 21:27:28,143587,32,"task-7kgt",NA,36816537,"hcqa8",9856430,NA,"complete",NA,NA,"computer","Desktop or Laptop","Windows 10","Chrome 123.0.0.0","1920x1080","1920x1080",NA,NA,NA,"Alternating Serial Reaction Time (ASRT) task",37,"DGS",418.799999952316,NA,70,NA,NA,"serial-reaction-time",138,263157,"0.0-1380.0-0.0",1,NA,"[]",NA,"[[1,1,1,1]]","[0,1]","R",2,1,41,3421,1,2,"f","f",418.799999952316,242,"X"
140,1712518020319,2024-07-04 19:27:00,1712518048936,2,2024-07-04 21:27:28,143587,32,"task-7kgt",NA,36816537,"hcqa8",9856430,NA,"complete",NA,NA,"computer","Desktop or Laptop","Windows 10","Chrome 123.0.0.0","1920x1080","1920x1080",NA,NA,NA,"Alternating Serial Reaction Time (ASRT) task",37,"DGS",366.5,NA,70,NA,NA,"serial-reaction-time",139,264036,"0.0-1391.0-0.0",1,NA,"[]",NA,"[[1,1,1,1]]","[0,1]","R",2,1,42,3421,1,2,"f","f",366.5,422,"X"
141,1712518021203,2024-07-04 19:27:01,1712518049828,2,2024-07-04 21:27:29,143587,32,"task-7kgt",NA,36816537,"hcqa8",9856430,NA,"complete",NA,NA,"computer","Desktop or Laptop","Windows 10","Chrome 123.0.0.0","1920x1080","1920x1080",NA,NA,NA,"Alternating Serial Reaction Time (ASRT) task",37,"DGS",376.299999952316,NA,83,NA,NA,"serial-reaction-time",140,264927,"0.0-1402.0-0.0",1,NA,"[]",NA,"[[1,1,1,1]]","[0,0]","R",2,1,43,3421,1,1,"s","s",376.299999952316,221,"X"
142,1712518022139,2024-07-04 19:27:02,1712518050764,2,2024-07-04 21:27:30,143587,32,"task-7kgt",NA,36816537,"hcqa8",9856430,NA,"complete",NA,NA,"computer","Desktop or Laptop","Windows 10","Chrome 123.0.0.0","1920x1080","1920x1080",NA,NA,NA,"Alternating Serial Reaction Time (ASRT) task",37,"DGS",421.799999952316,NA,74,NA,NA,"serial-reaction-time",141,265864,"0.0-1413.0-0.0",1,NA,"[]",NA,"[[1,1,1,1]]","[0,2]","R",2,1,44,3421,1,3,"j","j",421.799999952316,213,"X"
143,1712518022910,2024-07-04 19:27:02,1712518051535,2,2024-07-04 21:27:31,143587,32,"task-7kgt",NA,36816537,"hcqa8",9856430,NA,"complete",NA,NA,"computer","Desktop or Laptop","Windows 10","Chrome 123.0.0.0","1920x1080","1920x1080",NA,NA,NA,"Alternating Serial Reaction Time (ASRT) task",37,"DGS",255.099999904633,NA,76,NA,NA,"serial-reaction-time",142,266635,"0.0-1424.0-0.0",1,NA,"[]",NA,"[[1,1,1,1]]","[0,3]","R",2,1,45,3421,1,4,"l","l",255.099999904633,134,"X"
144,1712518024301,2024-07-04 19:27:04,1712518052511,2,2024-07-04 21:27:32,143587,32,"task-7kgt",NA,36816537,"hcqa8",9856430,NA,"complete",NA,NA,"computer","Desktop or Laptop","Windows 10","Chrome 123.0.0.0","1920x1080","1920x1080",NA,NA,NA,"Alternating Serial Reaction Time (ASRT) task",37,"DGS",461,NA,76,NA,NA,"serial-reaction-time",143,267611,"0.0-1435.0-0.0",1,NA,"[]",NA,"[[1,1,1,1]]","[0,3]","R",2,1,46,3421,1,4,"l","l",461,344,"X"
145,1712518024683,2024-07-04 19:27:04,1712518053271,2,2024-07-04 21:27:33,143587,32,"task-7kgt",NA,36816537,"hcqa8",9856430,NA,"complete",NA,NA,"computer","Desktop or Laptop","Windows 10","Chrome 123.0.0.0","1920x1080","1920x1080",NA,NA,NA,"Alternating Serial Reaction Time (ASRT) task",37,"DGS",246.600000143051,NA,76,NA,NA,"serial-reaction-time",144,268371,"0.0-1446.0-0.0",1,NA,"[]",NA,"[[1,1,1,1]]","[0,3]","R",2,1,47,3421,1,4,"l","l",246.600000143051,444,"X"
146,1712518025455,2024-07-04 19:27:05,1712518054075,2,2024-07-04 21:27:34,143587,32,"task-7kgt",NA,36816537,"hcqa8",9856430,NA,"complete",NA,NA,"computer","Desktop or Laptop","Windows 10","Chrome 123.0.0.0","1920x1080","1920x1080",NA,NA,NA,"Alternating Serial Reaction Time (ASRT) task",37,"DGS",291.599999904633,NA,74,NA,NA,"serial-reaction-time",145,269175,"0.0-1457.0-0.0",1,NA,"[]",NA,"[[1,1,1,1]]","[0,2]","R",2,1,48,3421,1,3,"j","j",291.599999904633,443,"X"
147,1712518026266,2024-07-04 19:27:06,1712518054880,2,2024-07-04 21:27:34,143587,32,"task-7kgt",NA,36816537,"hcqa8",9856430,NA,"complete",NA,NA,"computer","Desktop or Laptop","Windows 10","Chrome 123.0.0.0","1920x1080","1920x1080",NA,NA,NA,"Alternating Serial Reaction Time (ASRT) task",37,"DGS",290.5,NA,74,NA,NA,"serial-reaction-time",146,269980,"0.0-1468.0-0.0",1,NA,"[]",NA,"[[1,1,1,1]]","[0,2]","R",2,1,49,3421,1,3,"j","j",290.5,433,"X"
148,1712518027114,2024-07-04 19:27:07,1712518055725,2,2024-07-04 21:27:35,143587,32,"task-7kgt",NA,36816537,"hcqa8",9856430,NA,"complete",NA,NA,"computer","Desktop or Laptop","Windows 10","Chrome 123.0.0.0","1920x1080","1920x1080",NA,NA,NA,"Alternating Serial Reaction Time (ASRT) task",37,"DGS",332.799999952316,NA,83,NA,NA,"serial-reaction-time",147,270825,"0.0-1479.0-0.0",NA,NA,"[]",NA,"[[1,1,1,1]]","[0,1]","R",2,1,50,3421,1,2,"f","s",332.799999952316,332,"X"
149,1712518027288,2024-07-04 19:27:07,1712518055911,2,2024-07-04 21:27:35,143587,32,"task-7kgt",NA,36816537,"hcqa8",9856430,NA,"complete",NA,NA,"computer","Desktop or Laptop","Windows 10","Chrome 123.0.0.0","1920x1080","1920x1080",NA,NA,NA,"Alternating Serial Reaction Time (ASRT) task",37,"DGS",173,NA,70,NA,NA,"serial-reaction-time",148,271011,"0.0-1480.0-0.0",1,NA,"[]",NA,"[[1,1,1,1]]","[0,1]","R",2,0,50,3421,1,2,"f","f",505.799999952316,332,"X"
150,1712518028228,2024-07-04 19:27:08,1712518056854,2,2024-07-04 21:27:36,143587,32,"task-7kgt",NA,36816537,"hcqa8",9856430,NA,"complete",NA,NA,"computer","Desktop or Laptop","Windows 10","Chrome 123.0.0.0","1920x1080","1920x1080",NA,NA,NA,"Alternating Serial Reaction Time (ASRT) task",37,"DGS",427,NA,76,NA,NA,"serial-reaction-time",149,271954,"0.0-1490.0-0.0",NA,NA,"[]",NA,"[[1,1,1,1]]","[0,2]","R",2,1,51,3421,1,3,"j","l",427,323,"X"
151,1712518028491,2024-07-04 19:27:08,1712518057111,2,2024-07-04 21:27:37,143587,32,"task-7kgt",NA,36816537,"hcqa8",9856430,NA,"complete",NA,NA,"computer","Desktop or Laptop","Windows 10","Chrome 123.0.0.0","1920x1080","1920x1080",NA,NA,NA,"Alternating Serial Reaction Time (ASRT) task",37,"DGS",248.5,NA,74,NA,NA,"serial-reaction-time",150,272211,"0.0-1491.0-0.0",1,NA,"[]",NA,"[[1,1,1,1]]","[0,2]","R",2,0,51,3421,1,3,"j","j",675.5,323,"X"
152,1712518029385,2024-07-04 19:27:09,1712518058010,2,2024-07-04 21:27:38,143587,32,"task-7kgt",NA,36816537,"hcqa8",9856430,NA,"complete",NA,NA,"computer","Desktop or Laptop","Windows 10","Chrome 123.0.0.0","1920x1080","1920x1080",NA,NA,NA,"Alternating Serial Reaction Time (ASRT) task",37,"DGS",381.400000095367,NA,83,NA,NA,"serial-reaction-time",151,273110,"0.0-1501.0-0.0",1,NA,"[]",NA,"[[1,1,1,1]]","[0,0]","R",2,1,52,3421,1,1,"s","s",381.400000095367,231,"X"
153,1712518030315,2024-07-04 19:27:10,1712518058940,2,2024-07-04 21:27:38,143587,32,"task-7kgt",NA,36816537,"hcqa8",9856430,NA,"complete",NA,NA,"computer","Desktop or Laptop","Windows 10","Chrome 123.0.0.0","1920x1080","1920x1080",NA,NA,NA,"Alternating Serial Reaction Time (ASRT) task",37,"DGS",420.199999809265,NA,70,NA,NA,"serial-reaction-time",152,274040,"0.0-1512.0-0.0",1,NA,"[]",NA,"[[1,1,1,1]]","[0,1]","R",2,1,53,3421,1,2,"f","f",420.199999809265,312,"X"
154,1712518031139,2024-07-04 19:27:11,1712518059764,2,2024-07-04 21:27:39,143587,32,"task-7kgt",NA,36816537,"hcqa8",9856430,NA,"complete",NA,NA,"computer","Desktop or Laptop","Windows 10","Chrome 123.0.0.0","1920x1080","1920x1080",NA,NA,NA,"Alternating Serial Reaction Time (ASRT) task",37,"DGS",310,NA,70,NA,NA,"serial-reaction-time",153,274864,"0.0-1523.0-0.0",1,NA,"[]",NA,"[[1,1,1,1]]","[0,1]","R",2,1,54,3421,1,2,"f","f",310,122,"X"
155,1712518031970,2024-07-04 19:27:11,1712518060587,2,2024-07-04 21:27:40,143587,32,"task-7kgt",NA,36816537,"hcqa8",9856430,NA,"complete",NA,NA,"computer","Desktop or Laptop","Windows 10","Chrome 123.0.0.0","1920x1080","1920x1080",NA,NA,NA,"Alternating Serial Reaction Time (ASRT) task",37,"DGS",309.600000143051,NA,70,NA,NA,"serial-reaction-time",154,275686,"0.0-1534.0-0.0",1,NA,"[]",NA,"[[1,1,1,1]]","[0,1]","R",2,1,55,3421,1,2,"f","f",309.600000143051,222,"X"
156,1712518032823,2024-07-04 19:27:12,1712518061444,2,2024-07-04 21:27:41,143587,32,"task-7kgt",NA,36816537,"hcqa8",9856430,NA,"complete",NA,NA,"computer","Desktop or Laptop","Windows 10","Chrome 123.0.0.0","1920x1080","1920x1080",NA,NA,NA,"Alternating Serial Reaction Time (ASRT) task",37,"DGS",342.200000047684,NA,70,NA,NA,"serial-reaction-time",155,276544,"0.0-1545.0-0.0",1,NA,"[]",NA,"[[1,1,1,1]]","[0,1]","R",2,1,56,3421,1,2,"f","f",342.200000047684,222,"X"
157,1712518033620,2024-07-04 19:27:13,1712518062244,2,2024-07-04 21:27:42,143587,32,"task-7kgt",NA,36816537,"hcqa8",9856430,NA,"complete",NA,NA,"computer","Desktop or Laptop","Windows 10","Chrome 123.0.0.0","1920x1080","1920x1080",NA,NA,NA,"Alternating Serial Reaction Time (ASRT) task",37,"DGS",290.299999952316,NA,70,NA,NA,"serial-reaction-time",156,277344,"0.0-1556.0-0.0",1,NA,"[]",NA,"[[1,1,1,1]]","[0,1]","R",2,1,57,3421,1,2,"f","f",290.299999952316,222,"X"
158,1712518034388,2024-07-04 19:27:14,1712518063014,2,2024-07-04 21:27:43,143587,32,"task-7kgt",NA,36816537,"hcqa8",9856430,NA,"complete",NA,NA,"computer","Desktop or Laptop","Windows 10","Chrome 123.0.0.0","1920x1080","1920x1080",NA,NA,NA,"Alternating Serial Reaction Time (ASRT) task",37,"DGS",258,NA,70,NA,NA,"serial-reaction-time",157,278114,"0.0-1567.0-0.0",1,NA,"[]",NA,"[[1,1,1,1]]","[0,1]","R",2,1,58,3421,1,2,"f","f",258,222,"X"
159,1712518035222,2024-07-04 19:27:15,1712518063835,2,2024-07-04 21:27:43,143587,32,"task-7kgt",NA,36816537,"hcqa8",9856430,NA,"complete",NA,NA,"computer","Desktop or Laptop","Windows 10","Chrome 123.0.0.0","1920x1080","1920x1080",NA,NA,NA,"Alternating Serial Reaction Time (ASRT) task",37,"DGS",306.800000190735,NA,70,NA,NA,"serial-reaction-time",158,278935,"0.0-1578.0-0.0",1,NA,"[]",NA,"[[1,1,1,1]]","[0,1]","R",2,1,59,3421,1,2,"f","f",306.800000190735,222,"X"
160,1712518036122,2024-07-04 19:27:16,1712518064748,2,2024-07-04 21:27:44,143587,32,"task-7kgt",NA,36816537,"hcqa8",9856430,NA,"complete",NA,NA,"computer","Desktop or Laptop","Windows 10","Chrome 123.0.0.0","1920x1080","1920x1080",NA,NA,NA,"Alternating Serial Reaction Time (ASRT) task",37,"DGS",394.5,NA,83,NA,NA,"serial-reaction-time",159,279848,"0.0-1589.0-0.0",1,NA,"[]",NA,"[[1,1,1,1]]","[0,0]","R",2,1,60,3421,1,1,"s","s",394.5,221,"X"
161,1712518036981,2024-07-04 19:27:16,1712518065601,2,2024-07-04 21:27:45,143587,32,"task-7kgt",NA,36816537,"hcqa8",9856430,NA,"complete",NA,NA,"computer","Desktop or Laptop","Windows 10","Chrome 123.0.0.0","1920x1080","1920x1080",NA,NA,NA,"Alternating Serial Reaction Time (ASRT) task",37,"DGS",339.700000047684,NA,83,NA,NA,"serial-reaction-time",160,280701,"0.0-1600.0-0.0",1,NA,"[]",NA,"[[1,1,1,1]]","[0,0]","R",2,1,61,3421,1,1,"s","s",339.700000047684,211,"X"
162,1712518037915,2024-07-04 19:27:17,1712518066533,2,2024-07-04 21:27:46,143587,32,"task-7kgt",NA,36816537,"hcqa8",9856430,NA,"complete",NA,NA,"computer","Desktop or Laptop","Windows 10","Chrome 123.0.0.0","1920x1080","1920x1080",NA,NA,NA,"Alternating Serial Reaction Time (ASRT) task",37,"DGS",420.900000095367,NA,70,NA,NA,"serial-reaction-time",161,281632,"0.0-1611.0-0.0",1,NA,"[]",NA,"[[1,1,1,1]]","[0,1]","R",2,1,62,3421,1,2,"f","f",420.900000095367,112,"X"
163,1712518039251,2024-07-04 19:27:19,1712518067455,2,2024-07-04 21:27:47,143587,32,"task-7kgt",NA,36816537,"hcqa8",9856430,NA,"complete",NA,NA,"computer","Desktop or Laptop","Windows 10","Chrome 123.0.0.0","1920x1080","1920x1080",NA,NA,NA,"Alternating Serial Reaction Time (ASRT) task",37,"DGS",408.600000143051,NA,76,NA,NA,"serial-reaction-time",162,282555,"0.0-1622.0-0.0",1,NA,"[]",NA,"[[1,1,1,1]]","[0,3]","R",2,1,63,3421,1,4,"l","l",408.600000143051,124,"X"
164,1712518039653,2024-07-04 19:27:19,1712518068278,2,2024-07-04 21:27:48,143587,32,"task-7kgt",NA,36816537,"hcqa8",9856430,NA,"complete",NA,NA,"computer","Desktop or Laptop","Windows 10","Chrome 123.0.0.0","1920x1080","1920x1080",NA,NA,NA,"Alternating Serial Reaction Time (ASRT) task",37,"DGS",307.300000190735,NA,76,NA,NA,"serial-reaction-time",163,283378,"0.0-1633.0-0.0",1,NA,"[]",NA,"[[1,1,1,1]]","[0,3]","R",2,1,64,3421,1,4,"l","l",307.300000190735,244,"X"
165,1712518040464,2024-07-04 19:27:20,1712518069086,2,2024-07-04 21:27:49,143587,32,"task-7kgt",NA,36816537,"hcqa8",9856430,NA,"complete",NA,NA,"computer","Desktop or Laptop","Windows 10","Chrome 123.0.0.0","1920x1080","1920x1080",NA,NA,NA,"Alternating Serial Reaction Time (ASRT) task",37,"DGS",297.899999856949,NA,74,NA,NA,"serial-reaction-time",164,284186,"0.0-1644.0-0.0",1,NA,"[]",NA,"[[1,1,1,1]]","[0,2]","R",2,1,65,3421,1,3,"j","j",297.899999856949,443,"X"
166,1712518041300,2024-07-04 19:27:21,1712518069918,2,2024-07-04 21:27:49,143587,32,"task-7kgt",NA,36816537,"hcqa8",9856430,NA,"complete",NA,NA,"computer","Desktop or Laptop","Windows 10","Chrome 123.0.0.0","1920x1080","1920x1080",NA,NA,NA,"Alternating Serial Reaction Time (ASRT) task",37,"DGS",317.599999904633,NA,70,NA,NA,"serial-reaction-time",165,285018,"0.0-1655.0-0.0",1,NA,"[]",NA,"[[1,1,1,1]]","[0,1]","R",2,1,66,3421,1,2,"f","f",317.599999904633,432,"X"
167,1712518042731,2024-07-04 19:27:22,1712518070927,2,2024-07-04 21:27:50,143587,32,"task-7kgt",NA,36816537,"hcqa8",9856430,NA,"complete",NA,NA,"computer","Desktop or Laptop","Windows 10","Chrome 123.0.0.0","1920x1080","1920x1080",NA,NA,NA,"Alternating Serial Reaction Time (ASRT) task",37,"DGS",496.400000095367,NA,74,NA,NA,"serial-reaction-time",166,286027,"0.0-1666.0-0.0",1,NA,"[]",NA,"[[1,1,1,1]]","[0,2]","R",2,1,67,3421,1,3,"j","j",496.400000095367,323,"X"
168,1712518043129,2024-07-04 19:27:23,1712518071739,2,2024-07-04 21:27:51,143587,32,"task-7kgt",NA,36816537,"hcqa8",9856430,NA,"complete",NA,NA,"computer","Desktop or Laptop","Windows 10","Chrome 123.0.0.0","1920x1080","1920x1080",NA,NA,NA,"Alternating Serial Reaction Time (ASRT) task",37,"DGS",295.700000047684,NA,70,NA,NA,"serial-reaction-time",167,286839,"0.0-1677.0-0.0",NA,NA,"[]",NA,"[[1,1,1,1]]","[0,0]","R",2,1,68,3421,1,1,"s","f",295.700000047684,231,"X"
169,1712518043542,2024-07-04 19:27:23,1712518072158,2,2024-07-04 21:27:52,143587,32,"task-7kgt",NA,36816537,"hcqa8",9856430,NA,"complete",NA,NA,"computer","Desktop or Laptop","Windows 10","Chrome 123.0.0.0","1920x1080","1920x1080",NA,NA,NA,"Alternating Serial Reaction Time (ASRT) task",37,"DGS",408.299999952316,NA,83,NA,NA,"serial-reaction-time",168,287258,"0.0-1678.0-0.0",1,NA,"[]",NA,"[[1,1,1,1]]","[0,0]","R",2,0,68,3421,1,1,"s","s",704,231,"X"
170,1712518044451,2024-07-04 19:27:24,1712518073066,2,2024-07-04 21:27:53,143587,32,"task-7kgt",NA,36816537,"hcqa8",9856430,NA,"complete",NA,NA,"computer","Desktop or Laptop","Windows 10","Chrome 123.0.0.0","1920x1080","1920x1080",NA,NA,NA,"Alternating Serial Reaction Time (ASRT) task",37,"DGS",398.900000095367,NA,74,NA,NA,"serial-reaction-time",169,288166,"0.0-1688.0-0.0",1,NA,"[]",NA,"[[1,1,1,1]]","[0,2]","R",2,1,69,3421,1,3,"j","j",398.900000095367,313,"X"
171,1712518045342,2024-07-04 19:27:25,1712518073967,2,2024-07-04 21:27:53,143587,32,"task-7kgt",NA,36816537,"hcqa8",9856430,NA,"complete",NA,NA,"computer","Desktop or Laptop","Windows 10","Chrome 123.0.0.0","1920x1080","1920x1080",NA,NA,NA,"Alternating Serial Reaction Time (ASRT) task",37,"DGS",390.599999904633,NA,74,NA,NA,"serial-reaction-time",170,289067,"0.0-1699.0-0.0",1,NA,"[]",NA,"[[1,1,1,1]]","[0,2]","R",2,1,70,3421,1,3,"j","j",390.599999904633,133,"X"
172,1712518046236,2024-07-04 19:27:26,1712518074858,2,2024-07-04 21:27:54,143587,32,"task-7kgt",NA,36816537,"hcqa8",9856430,NA,"complete",NA,NA,"computer","Desktop or Laptop","Windows 10","Chrome 123.0.0.0","1920x1080","1920x1080",NA,NA,NA,"Alternating Serial Reaction Time (ASRT) task",37,"DGS",372.5,NA,83,NA,NA,"serial-reaction-time",171,289958,"0.0-1710.0-0.0",1,NA,"[]",NA,"[[1,1,1,1]]","[0,0]","R",2,1,71,3421,1,1,"s","s",372.5,331,"X"
173,1712518047176,2024-07-04 19:27:27,1712518075803,2,2024-07-04 21:27:55,143587,32,"task-7kgt",NA,36816537,"hcqa8",9856430,NA,"complete",NA,NA,"computer","Desktop or Laptop","Windows 10","Chrome 123.0.0.0","1920x1080","1920x1080",NA,NA,NA,"Alternating Serial Reaction Time (ASRT) task",37,"DGS",430,NA,76,NA,NA,"serial-reaction-time",172,290903,"0.0-1721.0-0.0",1,NA,"[]",NA,"[[1,1,1,1]]","[0,3]","R",2,1,72,3421,1,4,"l","l",430,314,"X"
174,1712518048042,2024-07-04 19:27:28,1712518076660,2,2024-07-04 21:27:56,143587,32,"task-7kgt",NA,36816537,"hcqa8",9856430,NA,"complete",NA,NA,"computer","Desktop or Laptop","Windows 10","Chrome 123.0.0.0","1920x1080","1920x1080",NA,NA,NA,"Alternating Serial Reaction Time (ASRT) task",37,"DGS",340.599999904633,NA,74,NA,NA,"serial-reaction-time",173,291760,"0.0-1732.0-0.0",1,NA,"[]",NA,"[[1,1,1,1]]","[0,2]","R",2,1,73,3421,1,3,"j","j",340.599999904633,143,"X"
175,1712518048893,2024-07-04 19:27:28,1712518077508,2,2024-07-04 21:27:57,143587,32,"task-7kgt",NA,36816537,"hcqa8",9856430,NA,"complete",NA,NA,"computer","Desktop or Laptop","Windows 10","Chrome 123.0.0.0","1920x1080","1920x1080",NA,NA,NA,"Alternating Serial Reaction Time (ASRT) task",37,"DGS",332.5,NA,74,NA,NA,"serial-reaction-time",174,292608,"0.0-1743.0-0.0",NA,NA,"[]",NA,"[[1,1,1,1]]","[0,3]","R",2,1,74,3421,1,4,"l","j",332.5,434,"X"
176,1712518049129,2024-07-04 19:27:29,1712518077745,2,2024-07-04 21:27:57,143587,32,"task-7kgt",NA,36816537,"hcqa8",9856430,NA,"complete",NA,NA,"computer","Desktop or Laptop","Windows 10","Chrome 123.0.0.0","1920x1080","1920x1080",NA,NA,NA,"Alternating Serial Reaction Time (ASRT) task",37,"DGS",223.100000143051,NA,76,NA,NA,"serial-reaction-time",175,292845,"0.0-1744.0-0.0",1,NA,"[]",NA,"[[1,1,1,1]]","[0,3]","R",2,0,74,3421,1,4,"l","l",555.600000143051,434,"X"
177,1712518050144,2024-07-04 19:27:30,1712518078761,2,2024-07-04 21:27:58,143587,32,"task-7kgt",NA,36816537,"hcqa8",9856430,NA,"complete",NA,NA,"computer","Desktop or Laptop","Windows 10","Chrome 123.0.0.0","1920x1080","1920x1080",NA,NA,NA,"Alternating Serial Reaction Time (ASRT) task",37,"DGS",501.200000047684,NA,70,NA,NA,"serial-reaction-time",176,293860,"0.0-1754.0-0.0",1,NA,"[]",NA,"[[1,1,1,1]]","[0,1]","R",2,1,75,3421,1,2,"f","f",501.200000047684,342,"X"
178,1712518051036,2024-07-04 19:27:31,1712518079662,2,2024-07-04 21:27:59,143587,32,"task-7kgt",NA,36816537,"hcqa8",9856430,NA,"complete",NA,NA,"computer","Desktop or Laptop","Windows 10","Chrome 123.0.0.0","1920x1080","1920x1080",NA,NA,NA,"Alternating Serial Reaction Time (ASRT) task",37,"DGS",386.200000047684,NA,70,NA,NA,"serial-reaction-time",177,294762,"0.0-1765.0-0.0",1,NA,"[]",NA,"[[1,1,1,1]]","[0,1]","R",2,1,76,3421,1,2,"f","f",386.200000047684,422,"X"
179,1712518052356,2024-07-04 19:27:32,1712518080559,2,2024-07-04 21:28:00,143587,32,"task-7kgt",NA,36816537,"hcqa8",9856430,NA,"complete",NA,NA,"computer","Desktop or Laptop","Windows 10","Chrome 123.0.0.0","1920x1080","1920x1080",NA,NA,NA,"Alternating Serial Reaction Time (ASRT) task",37,"DGS",386.100000143051,NA,83,NA,NA,"serial-reaction-time",178,295659,"0.0-1776.0-0.0",1,NA,"[]",NA,"[[1,1,1,1]]","[0,0]","R",2,1,77,3421,1,1,"s","s",386.100000143051,221,"X"
180,1712518052871,2024-07-04 19:27:32,1712518081491,2,2024-07-04 21:28:01,143587,32,"task-7kgt",NA,36816537,"hcqa8",9856430,NA,"complete",NA,NA,"computer","Desktop or Laptop","Windows 10","Chrome 123.0.0.0","1920x1080","1920x1080",NA,NA,NA,"Alternating Serial Reaction Time (ASRT) task",37,"DGS",419,NA,74,NA,NA,"serial-reaction-time",179,296591,"0.0-1787.0-0.0",1,NA,"[]",NA,"[[1,1,1,1]]","[0,2]","R",2,1,78,3421,1,3,"j","j",419,213,"X"
181,1712518053714,2024-07-04 19:27:33,1712518082331,2,2024-07-04 21:28:02,143587,32,"task-7kgt",NA,36816537,"hcqa8",9856430,NA,"complete",NA,NA,"computer","Desktop or Laptop","Windows 10","Chrome 123.0.0.0","1920x1080","1920x1080",NA,NA,NA,"Alternating Serial Reaction Time (ASRT) task",37,"DGS",325.5,NA,83,NA,NA,"serial-reaction-time",180,297431,"0.0-1798.0-0.0",1,NA,"[]",NA,"[[1,1,1,1]]","[0,0]","R",2,1,79,3421,1,1,"s","s",325.5,131,"X"
182,1712518054855,2024-07-04 19:27:34,1712518083476,2,2024-07-04 21:28:03,143587,32,"task-7kgt",NA,36816537,"hcqa8",9856430,NA,"complete",NA,NA,"computer","Desktop or Laptop","Windows 10","Chrome 123.0.0.0","1920x1080","1920x1080",NA,NA,NA,"Alternating Serial Reaction Time (ASRT) task",37,"DGS",621.899999856949,NA,70,NA,NA,"serial-reaction-time",181,298576,"0.0-1809.0-0.0",1,NA,"[]",NA,"[[1,1,1,1]]","[0,1]","R",2,1,80,3421,1,2,"f","f",621.899999856949,312,"X"
183,1712518055841,2024-07-04 19:27:35,1712518084458,2,2024-07-04 21:28:04,143587,32,"task-7kgt",NA,36816537,"hcqa8",9856430,NA,"complete",NA,NA,"computer","Desktop or Laptop","Windows 10","Chrome 123.0.0.0","1920x1080","1920x1080",NA,NA,NA,"Alternating Serial Reaction Time (ASRT) task",37,"DGS",471.800000190735,NA,74,NA,NA,"serial-reaction-time",182,299558,"0.0-1820.0-0.0",1,NA,"[]",NA,"[[1,1,1,1]]","[0,2]","R",2,1,81,3421,1,3,"j","j",471.800000190735,123,"X"
184,1712518056703,2024-07-04 19:27:36,1712518085321,2,2024-07-04 21:28:05,143587,32,"task-7kgt",NA,36816537,"hcqa8",9856430,NA,"complete",NA,NA,"computer","Desktop or Laptop","Windows 10","Chrome 123.0.0.0","1920x1080","1920x1080",NA,NA,NA,"Alternating Serial Reaction Time (ASRT) task",37,"DGS",346.600000143051,NA,74,NA,NA,"serial-reaction-time",183,300421,"0.0-1831.0-0.0",1,NA,"[]",NA,"[[1,1,1,1]]","[0,2]","R",2,1,82,3421,1,3,"j","j",346.600000143051,233,"X"
185,1712518057619,2024-07-04 19:27:37,1712518086244,2,2024-07-04 21:28:06,143587,32,"task-7kgt",NA,36816537,"hcqa8",9856430,NA,"complete",NA,NA,"computer","Desktop or Laptop","Windows 10","Chrome 123.0.0.0","1920x1080","1920x1080",NA,NA,NA,"Alternating Serial Reaction Time (ASRT) task",37,"DGS",408.700000047684,NA,70,NA,NA,"serial-reaction-time",184,301344,"0.0-1842.0-0.0",1,NA,"[]",NA,"[[1,1,1,1]]","[0,1]","R",2,1,83,3421,1,2,"f","f",408.700000047684,332,"X"
186,1712518058474,2024-07-04 19:27:38,1712518087099,2,2024-07-04 21:28:07,143587,32,"task-7kgt",NA,36816537,"hcqa8",9856430,NA,"complete",NA,NA,"computer","Desktop or Laptop","Windows 10","Chrome 123.0.0.0","1920x1080","1920x1080",NA,NA,NA,"Alternating Serial Reaction Time (ASRT) task",37,"DGS",338.600000143051,NA,76,NA,NA,"serial-reaction-time",185,302199,"0.0-1853.0-0.0",NA,NA,"[]",NA,"[[1,1,1,1]]","[0,2]","R",2,1,84,3421,1,3,"j","l",338.600000143051,323,"X"
187,1712518058810,2024-07-04 19:27:38,1712518087425,2,2024-07-04 21:28:07,143587,32,"task-7kgt",NA,36816537,"hcqa8",9856430,NA,"complete",NA,NA,"computer","Desktop or Laptop","Windows 10","Chrome 123.0.0.0","1920x1080","1920x1080",NA,NA,NA,"Alternating Serial Reaction Time (ASRT) task",37,"DGS",317.5,NA,74,NA,NA,"serial-reaction-time",186,302525,"0.0-1854.0-0.0",1,NA,"[]",NA,"[[1,1,1,1]]","[0,2]","R",2,0,84,3421,1,3,"j","j",656.100000143051,323,"X"
188,1712518059662,2024-07-04 19:27:39,1712518088277,2,2024-07-04 21:28:08,143587,32,"task-7kgt",NA,36816537,"hcqa8",9856430,NA,"complete",NA,NA,"computer","Desktop or Laptop","Windows 10","Chrome 123.0.0.0","1920x1080","1920x1080",NA,NA,NA,"Alternating Serial Reaction Time (ASRT) task",37,"DGS",340,NA,74,NA,NA,"serial-reaction-time",187,303377,"0.0-1864.0-0.0",1,NA,"[]",NA,"[[1,1,1,1]]","[0,2]","R",2,1,85,3421,1,3,"j","j",340,233,"X"
189,1712518064680,2024-07-04 19:27:44,1712518093287,2,2024-07-04 21:28:13,143587,32,"task-7kgt",NA,36816537,"hcqa8",9856430,NA,"complete",NA,NA,"computer","Desktop or Laptop","Windows 10","Chrome 123.0.0.0","1920x1080","1920x1080",NA,NA,NA,"Alternating Serial Reaction Time (ASRT) task",37,"DGS",NA,"<h2>End of block 2</h2><br><p>Your accuracy: 88%</p><p>Your average response time: 358 ms</p><br><p class='message'><strong>Please try to be more accurate.</strong></p>",NA,NA,NA,"html-keyboard-response",188,308387,"0.0-1875.0",NA,NA,"[]",NA,NA,NA,NA,NA,NA,NA,NA,NA,NA,NA,NA,NA,NA,NA
190,1712518070827,2024-07-04 19:27:50,1712518099306,2,2024-07-04 21:28:19,143587,32,"task-7kgt",NA,36816537,"hcqa8",9856430,NA,"complete",NA,NA,"computer","Desktop or Laptop","Windows 10","Chrome 123.0.0.0","1920x1080","1920x1080",NA,NA,NA,"Alternating Serial Reaction Time (ASRT) task",37,"DGS",6005.09999990463,"<h2>The real task begins now.</h2>
        <p>If you are ready, press <strong>any</strong> key to start the task!</p>",74,NA,NA,"html-keyboard-response",189,314406,"0.0-1876.0",NA,NA,"[]",NA,NA,NA,NA,NA,NA,NA,NA,NA,NA,NA,NA,NA,NA,NA
191,1712518071208,2024-07-04 19:27:51,1712518099832,2,2024-07-04 21:28:19,143587,32,"task-7kgt",NA,36816537,"hcqa8",9856430,NA,"complete",NA,NA,"computer","Desktop or Laptop","Windows 10","Chrome 123.0.0.0","1920x1080","1920x1080",NA,NA,NA,"Alternating Serial Reaction Time (ASRT) task",37,"DGS",510.600000143051,NA,76,NA,NA,"serial-reaction-time",190,314932,"0.0-1877.0-0.0",1,NA,"[]",NA,"[[1,1,1,1]]","[0,3]","R",1,1,1,3421,0,4,"l","l",510.600000143051,4,"X"
192,1712518072073,2024-07-04 19:27:52,1712518100690,2,2024-07-04 21:28:20,143587,32,"task-7kgt",NA,36816537,"hcqa8",9856430,NA,"complete",NA,NA,"computer","Desktop or Laptop","Windows 10","Chrome 123.0.0.0","1920x1080","1920x1080",NA,NA,NA,"Alternating Serial Reaction Time (ASRT) task",37,"DGS",347.100000143051,NA,74,NA,NA,"serial-reaction-time",191,315789,"0.0-1888.0-0.0",1,NA,"[]",NA,"[[1,1,1,1]]","[0,2]","P",1,1,2,3421,0,3,"j","j",347.100000143051,43,"X"
193,1712518072942,2024-07-04 19:27:52,1712518101561,2,2024-07-04 21:28:21,143587,32,"task-7kgt",NA,36816537,"hcqa8",9856430,NA,"complete",NA,NA,"computer","Desktop or Laptop","Windows 10","Chrome 123.0.0.0","1920x1080","1920x1080",NA,NA,NA,"Alternating Serial Reaction Time (ASRT) task",37,"DGS",354.299999952316,NA,70,NA,NA,"serial-reaction-time",192,316661,"0.0-1899.0-0.0",1,NA,"[]",NA,"[[1,1,1,1]]","[0,1]","R",1,1,3,3421,0,2,"f","f",354.299999952316,432,"H"
194,1712518073820,2024-07-04 19:27:53,1712518102443,2,2024-07-04 21:28:22,143587,32,"task-7kgt",NA,36816537,"hcqa8",9856430,NA,"complete",NA,NA,"computer","Desktop or Laptop","Windows 10","Chrome 123.0.0.0","1920x1080","1920x1080",NA,NA,NA,"Alternating Serial Reaction Time (ASRT) task",37,"DGS",366.899999856949,NA,74,NA,NA,"serial-reaction-time",193,317543,"0.0-1910.0-0.0",NA,NA,"[]",NA,"[[1,1,1,1]]","[0,3]","P",1,1,4,3421,0,4,"l","j",366.899999856949,324,"H"
195,1712518074013,2024-07-04 19:27:54,1712518102632,2,2024-07-04 21:28:22,143587,32,"task-7kgt",NA,36816537,"hcqa8",9856430,NA,"complete",NA,NA,"computer","Desktop or Laptop","Windows 10","Chrome 123.0.0.0","1920x1080","1920x1080",NA,NA,NA,"Alternating Serial Reaction Time (ASRT) task",37,"DGS",178.200000047684,NA,76,NA,NA,"serial-reaction-time",194,317732,"0.0-1911.0-0.0",1,NA,"[]",NA,"[[1,1,1,1]]","[0,3]","P",1,0,4,3421,0,4,"l","l",545.099999904633,324,"H"
196,1712518075012,2024-07-04 19:27:55,1712518103626,2,2024-07-04 21:28:23,143587,32,"task-7kgt",NA,36816537,"hcqa8",9856430,NA,"complete",NA,NA,"computer","Desktop or Laptop","Windows 10","Chrome 123.0.0.0","1920x1080","1920x1080",NA,NA,NA,"Alternating Serial Reaction Time (ASRT) task",37,"DGS",479.700000047684,NA,70,NA,NA,"serial-reaction-time",195,318726,"0.0-1921.0-0.0",1,NA,"[]",NA,"[[1,1,1,1]]","[0,1]","R",1,1,5,3421,0,2,"f","f",479.700000047684,242,"T"
197,1712518075867,2024-07-04 19:27:55,1712518104488,2,2024-07-04 21:28:24,143587,32,"task-7kgt",NA,36816537,"hcqa8",9856430,NA,"complete",NA,NA,"computer","Desktop or Laptop","Windows 10","Chrome 123.0.0.0","1920x1080","1920x1080",NA,NA,NA,"Alternating Serial Reaction Time (ASRT) task",37,"DGS",342.299999952316,NA,70,NA,NA,"serial-reaction-time",196,319587,"0.0-1932.0-0.0",1,NA,"[]",NA,"[[1,1,1,1]]","[0,1]","P",1,1,6,3421,0,2,"f","f",342.299999952316,422,"H"
198,1712518076938,2024-07-04 19:27:56,1712518105555,2,2024-07-04 21:28:25,143587,32,"task-7kgt",NA,36816537,"hcqa8",9856430,NA,"complete",NA,NA,"computer","Desktop or Laptop","Windows 10","Chrome 123.0.0.0","1920x1080","1920x1080",NA,NA,NA,"Alternating Serial Reaction Time (ASRT) task",37,"DGS",555.700000047684,NA,74,NA,NA,"serial-reaction-time",197,320655,"0.0-1943.0-0.0",1,NA,"[]",NA,"[[1,1,1,1]]","[0,2]","R",1,1,7,3421,0,3,"j","j",555.700000047684,223,"L"
199,1712518077894,2024-07-04 19:27:57,1712518106510,2,2024-07-04 21:28:26,143587,32,"task-7kgt",NA,36816537,"hcqa8",9856430,NA,"complete",NA,NA,"computer","Desktop or Laptop","Windows 10","Chrome 123.0.0.0","1920x1080","1920x1080",NA,NA,NA,"Alternating Serial Reaction Time (ASRT) task",37,"DGS",435.200000047684,NA,83,NA,NA,"serial-reaction-time",198,321610,"0.0-1954.0-0.0",1,NA,"[]",NA,"[[1,1,1,1]]","[0,0]","P",1,1,8,3421,0,1,"s","s",435.200000047684,231,"H"
200,1712518078875,2024-07-04 19:27:58,1712518107492,2,2024-07-04 21:28:27,143587,32,"task-7kgt",NA,36816537,"hcqa8",9856430,NA,"complete",NA,NA,"computer","Desktop or Laptop","Windows 10","Chrome 123.0.0.0","1920x1080","1920x1080",NA,NA,NA,"Alternating Serial Reaction Time (ASRT) task",37,"DGS",466.399999856949,NA,76,NA,NA,"serial-reaction-time",199,322592,"0.0-1965.0-0.0",1,NA,"[]",NA,"[[1,1,1,1]]","[0,3]","R",1,1,9,3421,0,4,"l","l",466.399999856949,314,"H"
201,1712518079713,2024-07-04 19:27:59,1712518108316,2,2024-07-04 21:28:28,143587,32,"task-7kgt",NA,36816537,"hcqa8",9856430,NA,"complete",NA,NA,"computer","Desktop or Laptop","Windows 10","Chrome 123.0.0.0","1920x1080","1920x1080",NA,NA,NA,"Alternating Serial Reaction Time (ASRT) task",37,"DGS",314.900000095367,NA,74,NA,NA,"serial-reaction-time",200,323416,"0.0-1976.0-0.0",1,NA,"[]",NA,"[[1,1,1,1]]","[0,2]","P",1,1,10,3421,0,3,"j","j",314.900000095367,143,"H"
202,1712518080705,2024-07-04 19:28:00,1712518109322,2,2024-07-04 21:28:29,143587,32,"task-7kgt",NA,36816537,"hcqa8",9856430,NA,"complete",NA,NA,"computer","Desktop or Laptop","Windows 10","Chrome 123.0.0.0","1920x1080","1920x1080",NA,NA,NA,"Alternating Serial Reaction Time (ASRT) task",37,"DGS",485,NA,83,NA,NA,"serial-reaction-time",201,324421,"0.0-1987.0-0.0",1,NA,"[]",NA,"[[1,1,1,1]]","[0,0]","R",1,1,11,3421,0,1,"s","s",485,431,"L"
203,1712518081602,2024-07-04 19:28:01,1712518110219,2,2024-07-04 21:28:30,143587,32,"task-7kgt",NA,36816537,"hcqa8",9856430,NA,"complete",NA,NA,"computer","Desktop or Laptop","Windows 10","Chrome 123.0.0.0","1920x1080","1920x1080",NA,NA,NA,"Alternating Serial Reaction Time (ASRT) task",37,"DGS",383.800000190735,NA,76,NA,NA,"serial-reaction-time",202,325319,"0.0-1998.0-0.0",1,NA,"[]",NA,"[[1,1,1,1]]","[0,3]","P",1,1,12,3421,0,4,"l","l",383.800000190735,314,"H"
204,1712518082498,2024-07-04 19:28:02,1712518111115,2,2024-07-04 21:28:31,143587,32,"task-7kgt",NA,36816537,"hcqa8",9856430,NA,"complete",NA,NA,"computer","Desktop or Laptop","Windows 10","Chrome 123.0.0.0","1920x1080","1920x1080",NA,NA,NA,"Alternating Serial Reaction Time (ASRT) task",37,"DGS",380.700000047684,NA,74,NA,NA,"serial-reaction-time",203,326215,"0.0-2009.0-0.0",1,NA,"[]",NA,"[[1,1,1,1]]","[0,2]","R",1,1,13,3421,0,3,"j","j",380.700000047684,143,"H"
205,1712518083274,2024-07-04 19:28:03,1712518111893,2,2024-07-04 21:28:31,143587,32,"task-7kgt",NA,36816537,"hcqa8",9856430,NA,"complete",NA,NA,"computer","Desktop or Laptop","Windows 10","Chrome 123.0.0.0","1920x1080","1920x1080",NA,NA,NA,"Alternating Serial Reaction Time (ASRT) task",37,"DGS",268.400000095367,NA,70,NA,NA,"serial-reaction-time",204,326993,"0.0-2020.0-0.0",1,NA,"[]",NA,"[[1,1,1,1]]","[0,1]","P",1,1,14,3421,0,2,"f","f",268.400000095367,432,"H"
206,1712518084204,2024-07-04 19:28:04,1712518112822,2,2024-07-04 21:28:32,143587,32,"task-7kgt",NA,36816537,"hcqa8",9856430,NA,"complete",NA,NA,"computer","Desktop or Laptop","Windows 10","Chrome 123.0.0.0","1920x1080","1920x1080",NA,NA,NA,"Alternating Serial Reaction Time (ASRT) task",37,"DGS",416.199999809265,NA,74,NA,NA,"serial-reaction-time",205,327922,"0.0-2031.0-0.0",1,NA,"[]",NA,"[[1,1,1,1]]","[0,2]","R",1,1,15,3421,0,3,"j","j",416.199999809265,323,"T"
207,1712518085224,2024-07-04 19:28:05,1712518113850,2,2024-07-04 21:28:33,143587,32,"task-7kgt",NA,36816537,"hcqa8",9856430,NA,"complete",NA,NA,"computer","Desktop or Laptop","Windows 10","Chrome 123.0.0.0","1920x1080","1920x1080",NA,NA,NA,"Alternating Serial Reaction Time (ASRT) task",37,"DGS",512,NA,83,NA,NA,"serial-reaction-time",206,328950,"0.0-2042.0-0.0",1,NA,"[]",NA,"[[1,1,1,1]]","[0,0]","P",1,1,16,3421,0,1,"s","s",512,231,"H"
208,1712518086314,2024-07-04 19:28:06,1712518114931,2,2024-07-04 21:28:34,143587,32,"task-7kgt",NA,36816537,"hcqa8",9856430,NA,"complete",NA,NA,"computer","Desktop or Laptop","Windows 10","Chrome 123.0.0.0","1920x1080","1920x1080",NA,NA,NA,"Alternating Serial Reaction Time (ASRT) task",37,"DGS",570.5,NA,83,NA,NA,"serial-reaction-time",207,330031,"0.0-2053.0-0.0",NA,NA,"[]",NA,"[[1,1,1,1]]","[0,1]","R",1,1,17,3421,0,2,"f","s",570.5,312,"L"
209,1712518086703,2024-07-04 19:28:06,1712518115321,2,2024-07-04 21:28:35,143587,32,"task-7kgt",NA,36816537,"hcqa8",9856430,NA,"complete",NA,NA,"computer","Desktop or Laptop","Windows 10","Chrome 123.0.0.0","1920x1080","1920x1080",NA,NA,NA,"Alternating Serial Reaction Time (ASRT) task",37,"DGS",381.400000095367,NA,70,NA,NA,"serial-reaction-time",208,330421,"0.0-2054.0-0.0",1,NA,"[]",NA,"[[1,1,1,1]]","[0,1]","R",1,0,17,3421,0,2,"f","f",951.900000095367,312,"L"
210,1712518088007,2024-07-04 19:28:08,1712518116624,2,2024-07-04 21:28:36,143587,32,"task-7kgt",NA,36816537,"hcqa8",9856430,NA,"complete",NA,NA,"computer","Desktop or Laptop","Windows 10","Chrome 123.0.0.0","1920x1080","1920x1080",NA,NA,NA,"Alternating Serial Reaction Time (ASRT) task",37,"DGS",782.5,NA,74,NA,NA,"serial-reaction-time",209,331724,"0.0-2064.0-0.0",1,NA,"[]",NA,"[[1,1,1,1]]","[0,2]","P",1,1,18,3421,0,3,"j","j",782.5,123,"H"
211,1712518088872,2024-07-04 19:28:08,1712518117489,2,2024-07-04 21:28:37,143587,32,"task-7kgt",NA,36816537,"hcqa8",9856430,NA,"complete",NA,NA,"computer","Desktop or Laptop","Windows 10","Chrome 123.0.0.0","1920x1080","1920x1080",NA,NA,NA,"Alternating Serial Reaction Time (ASRT) task",37,"DGS",351.900000095367,NA,74,NA,NA,"serial-reaction-time",210,332588,"0.0-2075.0-0.0",1,NA,"[]",NA,"[[1,1,1,1]]","[0,2]","R",1,1,19,3421,0,3,"j","j",351.900000095367,233,"L"
212,1712518089712,2024-07-04 19:28:09,1712518118339,2,2024-07-04 21:28:38,143587,32,"task-7kgt",NA,36816537,"hcqa8",9856430,NA,"complete",NA,NA,"computer","Desktop or Laptop","Windows 10","Chrome 123.0.0.0","1920x1080","1920x1080",NA,NA,NA,"Alternating Serial Reaction Time (ASRT) task",37,"DGS",333.200000047684,NA,76,NA,NA,"serial-reaction-time",211,333439,"0.0-2086.0-0.0",1,NA,"[]",NA,"[[1,1,1,1]]","[0,3]","P",1,1,20,3421,0,4,"l","l",333.200000047684,334,"H"
213,1712518090783,2024-07-04 19:28:10,1712518119399,2,2024-07-04 21:28:39,143587,32,"task-7kgt",NA,36816537,"hcqa8",9856430,NA,"complete",NA,NA,"computer","Desktop or Laptop","Windows 10","Chrome 123.0.0.0","1920x1080","1920x1080",NA,NA,NA,"Alternating Serial Reaction Time (ASRT) task",37,"DGS",545.200000047684,NA,70,NA,NA,"serial-reaction-time",212,334499,"0.0-2097.0-0.0",1,NA,"[]",NA,"[[1,1,1,1]]","[0,1]","R",1,1,21,3421,0,2,"f","f",545.200000047684,342,"L"
214,1712518091654,2024-07-04 19:28:11,1712518120272,2,2024-07-04 21:28:40,143587,32,"task-7kgt",NA,36816537,"hcqa8",9856430,NA,"complete",NA,NA,"computer","Desktop or Laptop","Windows 10","Chrome 123.0.0.0","1920x1080","1920x1080",NA,NA,NA,"Alternating Serial Reaction Time (ASRT) task",37,"DGS",357.799999952316,NA,70,NA,NA,"serial-reaction-time",213,335372,"0.0-2108.0-0.0",1,NA,"[]",NA,"[[1,1,1,1]]","[0,1]","P",1,1,22,3421,0,2,"f","f",357.799999952316,422,"H"
